acc_x_mean,acc_y_mean,acc_z_mean,acc_x_std,acc_y_std,acc_z_std,acc_x_max,acc_y_max,acc_z_max,acc_x_min,acc_y_min,acc_z_min,gyro_x_mean,gyro_y_mean,gyro_z_mean,gyro_x_std,gyro_y_std,gyro_z_std,gyro_x_max,gyro_y_max,gyro_z_max,gyro_x_min,gyro_y_min,gyro_z_min,activity
0.8079471083660871,0.6050792706344761,-0.07886060808534526,0.3400527377296027,0.29007116101033764,0.31123727184442024,2.390305,2.311157,1.070602,-0.618698,-0.2379,-1.3544770000000002,-0.3167546459166199,-0.20590553626499208,0.14449838378069654,1.0791147578783264,1.9643643053018809,0.7020702067386936,3.3888010000000004,6.080116,2.908103,-3.902423,-6.649853,-2.179657,downstairs
0.8079471083660871,0.6050792706344761,-0.07886060808534526,0.3400527377296027,0.29007116101033764,0.31123727184442024,2.390305,2.311157,1.070602,-0.618698,-0.2379,-1.3544770000000002,-0.3167546459166199,-0.20590553626499208,0.14449838378069654,1.0791147578783264,1.9643643053018809,0.7020702067386936,3.3888010000000004,6.080116,2.908103,-3.902423,-6.649853,-2.179657,downstairs
-0.27223916906839773,1.0265168341790132,-0.0923391479602193,0.7247301175377828,1.149339983625337,0.6871248621227551,2.807007,5.363983,2.053986,-4.010848999999999,-1.796082,-5.257553,0.04908403621399182,0.15144672325102845,0.11782266213991768,3.057737510351778,2.9631316365617515,1.8787275895890065,6.22394,6.919963,4.481204,-9.52487,-11.997552,-6.496084,jogging
0.28115849937613996,0.3581203457145603,-0.8985972039543129,0.04187965432407455,0.03687143972251761,0.016954424585949823,0.527451,0.507019,-0.783539,0.040497,0.17131,-1.051422,-0.0021802077341624626,0.0392585239992226,0.003792396132918763,0.05237516920414051,0.03381121100046477,0.049603246282736706,0.591255,0.402753,0.7144739999999999,-0.7363529999999999,-0.333014,-0.590174,sitting
0.0798486498740552,1.0034294905057104,0.08025031699283089,0.07152180939436824,0.018362666497012188,0.05320670752324084,0.378998,1.373367,0.306076,-0.36496,0.742584,-0.284271,-0.0024304092603492228,0.03684968020404159,0.0016443926819697775,0.08746289249396225,0.17338796388412947,0.0623231026423178,1.544325,1.254333,0.90043,-1.158551,-1.909183,-0.516644,standing
-0.28748050022391447,0.8951773081056875,-0.18683281415136618,0.28034792929096664,0.3288437042906452,0.3342423148608983,0.549713,2.227661,0.82399,-1.587051,-0.191864,-2.449158,-0.10130294259681058,0.3644977239179956,0.044997332118451056,1.7901041130594404,1.0803136772656334,0.8803487145773911,4.947857,4.756963,3.480493,-4.945081,-3.72578,-2.045097,upstairs
-0.08016688090909088,0.9776997874999985,-0.06132935295454538,0.4284522764461291,0.6166408844856429,0.4767432985322905,1.5517729999999998,3.532059,1.595856,-3.963837,-0.746765,-2.285843,-0.029039326958525357,0.047701670276497604,0.12697430875576,1.947385505003302,1.7813702280497776,1.0742936452799678,5.516266000000001,7.66838,3.797359,-6.884486999999999,-4.972258,-5.110675,walking
-0.9936093482733264,0.03599441587068331,0.07006352718589265,0.37334922649643415,0.257214888388385,0.18503135951636104,0.076462,1.448456,1.313766,-2.453598,-1.077133,-0.652084,0.24988356422703534,0.02801650037341299,-0.04584667251680358,0.9171002508938695,0.8107506291993856,0.8998769790978419,3.545128,2.656956,2.666843,-2.666291,-3.189417,-3.482209,downstairs
0.8781876382788,0.41731054392649086,-0.05380017974002677,1.0861809282662374,1.0881198142841098,0.783859231625662,7.996291999999999,5.798019,3.166519,-1.309204,-2.818787,-5.722030999999999,0.0914629297407912,0.048368000682128216,-0.06518992655752624,2.3874305459399183,2.772819796678198,2.000349107715378,7.214239,13.581632999999998,7.443925,-7.604392,-13.817027,-7.561316000000001,jogging
0.5660159394767259,0.4576142973626126,-0.6907336308710723,0.04990011112173232,0.05745266707672814,0.025491233839279526,0.836975,0.97728,-0.439453,0.3816989999999999,0.1668849999999999,-0.902237,-3.160719225449921e-05,0.03970023247153962,0.0020410294712203407,0.030718008615753193,0.03150038670181383,0.03159323226567781,0.615,0.880302,0.754923,-0.59163,-0.509983,-0.595987,sitting
-0.3677867930129784,0.9346939602319763,-0.01831097045015188,0.034765799788776496,0.016950520969003856,0.03908060023893146,0.039505,1.298737,0.1272579999999999,-0.811859,0.7488560000000001,-0.2832179999999999,0.008932000559518817,0.012846789481046355,0.006333331514897203,0.09115681591127595,0.20696263997963485,0.07595464161606007,1.406698,0.94578,1.285741,-0.617009,-3.0283450000000003,-1.134365,standing
0.44279697920753236,0.8548115853275808,-0.10809101176932144,0.3471073864733588,0.47913770927791066,0.21246309129493793,3.036636,4.866562,0.820175,-0.551117,-0.44519,-1.226898,0.14833413716108482,0.31892134370015934,0.004389215311004816,1.264813932006994,1.2544425137677517,1.528900884549595,4.65768,5.041253,5.031208,-3.820266,-4.884976,-4.00929,upstairs
0.6016408338983062,0.7778669723970956,-0.04212705794995962,0.4850716097684865,0.4525821747985798,0.3144891621856834,3.434509,2.941956,1.330368,-0.791916,-0.493225,-1.856323,-0.03072584543670259,0.07482742443572146,0.03476015897939153,1.2400695027363244,1.2415187703752726,1.6137490943706605,4.211023,4.814998,5.527175,-4.025682,-4.2495080000000005,-6.171421,walking
0.2913531290009703,0.9175994054316211,0.2743215994180404,0.23995540332157708,0.4471420871255963,0.30045236845220563,1.200592,3.011887,1.494446,-0.539566,-0.8242649999999999,-0.990417,-0.15319139151873762,-0.29833996449704175,-0.13202268836291897,1.4954060369054065,1.1610616784643208,0.6140920291940524,3.713649,3.793530000000001,1.988525,-4.3228860000000005,-4.031672,-2.338635,downstairs
-0.018100599820143868,1.1069790068944834,0.09805008992805783,0.6599902342618624,1.7426461135872588,0.8378874404848285,2.919601,7.805633999999999,5.158173000000001,-2.4026490000000003,-3.889572,-3.609192,-0.008594413089802098,0.23302728949771662,-0.15842654429223768,3.203422755497873,2.574912014965407,2.2404375205819824,7.870042999999999,11.002505,8.664916,-9.075736,-6.443827,-5.8950260000000005,jogging
-0.5245988875607016,0.16073613497696462,0.8311017985306921,0.03383848764920281,0.017996417274385067,0.023283894563888293,-0.295471,0.367645,0.974945,-0.731064,-0.056488,0.625992,-0.0016658637739656952,0.04017215930877893,0.003441212663975769,0.027988770216052804,0.04207146340333518,0.040505833981608896,0.256542,0.556109,0.543277,-0.355907,-0.597063,-0.52673,sitting
-0.0333577233540266,0.9898813023520155,0.11817637098889602,0.06045162167329902,0.02004928763969141,0.12126051813529619,0.163605,1.15686,0.372559,-0.285553,0.806,-0.237488,-0.0019469459148446372,0.03890878773125601,0.0028490233690360313,0.0674246260565107,0.10972252815002978,0.04912829139880703,0.5306,2.250005,0.386772,-0.693281,-0.8122119999999999,-0.712445,standing
0.10064776970954374,0.950874408713692,0.2624001477178421,0.209058789519935,0.44625712975109894,0.2600045770096427,1.124527,4.060806,1.861725,-0.677322,-0.649384,-1.035217,0.052210175601519616,0.38192605698606985,-0.05827539636977623,1.5562545080871786,1.09070253003147,0.8975530941155385,4.727905000000001,4.776087,1.602293,-3.644624,-2.946697,-2.611256,upstairs
0.07187195199677286,1.0045290711980628,0.13224978035498233,0.3106388311744851,0.6042737990437844,0.4620153552894694,1.7841490000000002,3.635635,2.309662,-1.055954,-1.6649169999999998,-2.091263,0.008323639746473065,0.09529228930689031,-0.12944244019627904,1.8385643175001414,1.4364186489232642,0.8243420421524401,5.556623,8.543447,2.185797,-3.608701,-3.573793,-2.125499,walking
-0.13263003541532523,1.02538860334836,-0.09052800772697997,0.336793560569449,0.7831606951157704,0.6626229698038989,0.980377,5.819443,2.392471,-1.708862,-0.979263,-5.168594000000001,0.15563624622455707,-0.43429201181877897,0.07280279645436637,1.7125515625149534,2.1256654727219377,0.7102217054564485,4.678348000000001,7.01341,2.868462,-3.907617,-10.013878,-3.386854,downstairs
-0.12524360665362017,1.1137769397695125,-0.06496742922374409,0.6719374195093046,1.3402033800536444,0.9312691493031623,2.708939,7.552582000000001,5.142548000000001,-4.616119,-1.406403,-6.232239,0.04571574559082895,0.032778315255732056,0.01614899184303351,2.9255552045129547,3.15857312157012,1.1639700383500138,7.080236,9.843493,3.950266000000001,-8.561748,-14.636202,-8.16189,jogging
0.427014288902514,0.4180819688534659,-0.8080019597792766,0.03806569693680494,0.04715489575922163,0.03616324587619025,1.165787,0.816803,-0.557159,0.047867,0.001175,-1.094543,0.0011081567312469008,0.03897083693492299,0.0028637110034774047,0.06786142738585361,0.07694019204529291,0.06734058095737948,1.276298,1.12772,0.751963,-0.636282,-1.328378,-0.705431,sitting
-0.25352427392319193,0.9630955321451351,0.06679297888818161,0.06015436736051627,0.026328311166017096,0.0913611947539993,0.170059,1.437851,0.479935,-0.768997,0.566513,-0.5706180000000001,0.0007024547115074652,0.030139800687654435,0.003948788009025465,0.1247476911560331,0.22992180671982146,0.08345996321891443,1.876463,2.812048,1.194607,-1.4062,-2.172059,-0.983796,standing
-0.2394204325032763,0.9672620187854969,-0.15129755613805146,0.2711875705577812,0.46297603997238884,0.3018231491192383,0.596298,2.970413,1.0789030000000002,-2.521744,-1.145035,-2.378616,-0.09477277121279444,0.3795064846734785,0.038676306974677874,1.9776491916885315,1.423129317800495,0.8183302642399247,4.135676,5.265583,3.332209,-4.412199,-4.703926,-2.198972,upstairs
-0.06363581172651667,1.049493438019881,-0.025993616757963103,0.2927849521514728,0.722678969466719,0.5940155704604997,0.849442,4.41832,3.485291,-1.715393,-2.853516,-2.318939,0.02669637839506158,0.04852564794238694,0.0172446374485596,2.2418306578318483,2.2562486456837303,0.6995609146396143,4.9207,8.641233999999999,1.94554,-4.02714,-4.952916,-2.491582,walking
0.33580475556930756,0.9681170643564342,-0.062368181930693,0.3350689930592603,0.6518165049092667,0.2944012733474138,1.822464,4.15683,1.971268,-1.005508,-0.6229100000000001,-1.1691129999999998,-0.1343441444794955,-0.3376736801261832,0.09870349337539464,1.164821803897401,1.4090273199592276,1.4094354451902136,3.736429,4.868428,4.284673000000001,-3.223615,-4.481544,-3.158978,downstairs
-0.28020980040380683,1.062980525526392,0.024603332275742715,0.765674336399829,1.4208575676680792,0.5872889789264171,2.916168,6.219666,6.025879,-3.313614,-1.834381,-4.112533999999999,-0.08769252107728324,0.08240497248243553,0.010930998536299742,1.986857020273388,1.7948989743147574,2.8088006393157383,8.09727,6.886645,9.224162,-6.053817,-7.969317999999999,-7.117981,jogging
-0.7881320853695024,0.42173106083574263,0.44166266201256726,0.01742188170097266,0.017492082850310908,0.015399197911428249,-0.492203,0.57663,0.671478,-0.992813,0.1071319999999999,0.244919,-0.0003103960815996813,0.03851855392849934,0.004207122904463739,0.030399359548097714,0.03716182167796782,0.028710984213523288,0.5442239999999999,0.8866719999999999,0.515649,-0.531451,-0.5353060000000001,-0.241852,sitting
0.22024031066910693,0.9650186879161076,0.09825276123502015,0.08382535224233305,0.017072181653720122,0.09984343834511442,0.582596,1.2702790000000002,0.336578,-0.017914,0.5823520000000001,-0.167755,-0.0010883317607413559,0.03914255037910686,0.00381159545071609,0.05431434568359708,0.15213585457092346,0.055295953504095975,0.531302,1.848334,0.6602359999999999,-0.96474,-1.506952,-0.8273940000000001,standing
-0.3532095145631071,0.9626965609492971,0.06579417583603014,0.6173176988405435,0.8824120301896855,0.386519238836115,1.278442,4.43689,1.797241,-2.563461,-1.036377,-1.4067379999999998,-0.22023808618784504,0.7478406386740337,-0.0896128331491712,1.604002495918111,2.0027556401887567,2.3590263876718676,4.125836,5.739822,4.573759,-4.288733000000001,-7.014333000000001,-7.051262,upstairs
-0.27213334618390184,0.9987550106798628,0.03871305548319884,0.4690183974963084,0.7966691098855128,0.4317570943072983,1.319244,4.240311,1.514557,-1.894547,-0.978638,-1.509933,0.10582675660676534,0.049859502114164726,-0.10529066701902758,1.441002390850083,1.667219272309181,1.767790259841617,3.855175,6.107665,4.648933,-3.692044,-3.79614,-4.342373,walking
0.08601152994865932,1.0018148231602957,0.22876609640616088,0.37624087453351995,0.7456799906215829,0.6639097286159596,1.886765,5.215591000000001,4.682129,-1.229141,-0.8985139999999999,-1.746445,-0.0683205002905289,-0.4117135409645566,-0.1437393927948869,2.1256636232395283,2.40114560404106,0.8690464456046805,5.327371,11.018357,6.018357,-8.626005000000001,-14.108059,-3.727711,downstairs
0.058462252655539004,1.116605601669197,0.05631427212948923,0.5792200503023504,1.5603298622007424,0.9146331404861955,2.69841,6.652817,5.202042,-2.126389,-1.962753,-3.272018,-0.043568702668034844,0.13008719779374053,-0.043365973063109416,2.680635479094988,3.468594797005748,1.8655714780105863,8.112175,10.778363,8.820314999999999,-6.051218,-14.064424,-5.20389,jogging
-0.24441936314363188,0.40167433828880983,0.8735224235385212,0.05186009692298108,0.03420540021635775,0.04787847358916021,0.710129,1.072678,1.010178,-0.582825,0.266006,-0.034592,0.0032262166483774824,0.03567352759053158,0.0031546160056435063,0.06077109419646513,0.09362445577846491,0.035520215138956326,1.464833,1.089432,0.477466,-0.450672,-2.340205,-0.727731,sitting
0.4226252855708409,0.8864273801586497,0.10303571503163002,0.06032262523663254,0.04793787432303225,0.16676935135869597,1.157272,1.3806459999999998,0.981079,-0.198288,0.49173,-0.437439,0.0009305627415090403,0.042895403193003695,0.0034890274557657012,0.14168846186131687,0.20847925934405717,0.08223747584620916,1.6226040000000002,1.528893,0.944802,-1.197992,-2.219139,-1.022988,standing
0.09548291275167785,0.9245453496034144,0.27240920500305116,0.32896796875499057,0.6381567250811047,0.4350737828604114,2.281723,3.782074,2.6862790000000003,-0.8789370000000001,-0.660721,-1.483994,0.015376820273631792,0.5342982898009957,-0.09277916728855726,2.2496507008346236,1.9274583686373516,1.0100127130518257,5.74251,8.206099,4.934525,-6.643126,-6.282285,-4.646364,upstairs
0.37653434019319604,0.9441021875262495,0.0843420107097856,0.3139793460040392,0.6649407305685922,0.451901720346863,2.481277,4.651199,1.93985,-1.834579,-1.271698,-2.095352,0.03553788500851783,0.043701004897785334,-0.1044562106047701,1.8822179742839626,1.4050740117253406,0.8375654641366751,6.157166999999999,5.789166000000001,3.258159,-4.742992,-3.915177,-3.2873360000000003,walking
-0.1385270077476479,0.9674078389596009,-0.19814560653016047,0.3409886584684791,0.6760921691133513,0.5153435823379241,1.250458,4.283737,3.275146,-2.187897,-0.956284,-2.388687,0.11404857191201381,-0.3921136762549352,0.09638471178793,2.187956544576913,2.3182820838477443,1.3258404296542243,7.323727000000001,8.060684,3.622037,-5.128406,-11.132862,-5.123823000000001,downstairs
-0.00027041532358046427,1.0689705826927847,-0.07252902157203069,0.5293540841091627,1.3556033910849805,0.8378969502963961,2.035278,6.187271,4.049774,-2.670593,-1.868317,-3.843674,0.065673764528302,0.07403769635220123,0.18457530566037741,3.2973224017400047,2.665907503299932,1.0424673031486538,9.620787,7.193836999999999,3.212577,-8.654935,-12.498692,-4.442334,jogging
-0.20016874841628937,0.03973735696329815,-0.9811543907491259,0.03856516511087724,0.04274424385841948,0.02308937545330679,0.12822,0.8236389999999999,-0.410385,-0.714813,-0.2566989999999999,-2.050446,0.00024999918541899417,0.03876805376234603,0.005557591283983291,0.0636590021456752,0.11783498223876622,0.06364567182734346,2.315769,4.970791999999999,1.71872,-1.290632,-3.079622,-0.7111649999999999,sitting
-0.08023192702246444,0.9950502303596933,-0.023746615634333203,0.06326502220590081,0.025465976975935476,0.06699640473093257,0.475616,1.451767,0.4096069999999999,-0.738129,0.521301,-0.4880069999999999,0.0026424513879752666,0.04675093579792126,0.003935745954479683,0.10838297916176214,0.21747406018279564,0.09342831050676911,1.272626,3.366264,1.206768,-0.904018,-1.698176,-0.588453,standing
0.16687912820512807,-0.9137029384615383,-0.24343444773175585,0.2938383601788401,0.6526182015108069,0.43321395412833413,1.752609,1.166824,1.5569309999999998,-1.142105,-4.019135,-2.543533,-0.016081278044871836,-0.3200063858173077,0.00045865144230768887,2.288438008647321,1.8426483830038103,0.7738184828947503,5.834468,7.832332000000001,2.41931,-9.000103999999999,-8.940942999999999,-3.627926,upstairs
-0.0656401065326631,0.9996037224120607,-0.0930618635175883,0.2376068826849046,0.6043260478147288,0.4407077398584405,0.827255,3.745667,1.7481080000000002,-1.0836940000000002,-0.664673,-2.033707,0.03716573242306911,0.09459536519258219,0.18079873364581223,2.0205814807623557,1.8823949515264997,0.5660817029830942,5.32238,7.109338,2.195142,-4.851204,-7.945269000000001,-1.880419,walking
0.27366036866167903,0.934467532003323,-0.20441636367414778,0.2765660912065095,0.5145711620719162,0.28165482874450193,1.22049,4.467148,0.987717,-0.662231,-0.275238,-1.382111,-0.07700908234797291,-0.30464530532094575,0.12245890329391919,1.4090109443113075,1.008792691041872,0.8480200676139377,3.73711,3.1434040000000003,4.238565,-3.09848,-4.139521,-2.075222,downstairs
0.5244317238270844,0.8406381028477775,-0.12203048678549464,0.7565307539208284,1.3469779200975707,0.498521476124183,5.419006,7.980239999999999,3.425461,-1.413513,-1.877258,-3.47496,0.038712599085999146,0.09218093498130461,0.04134451848774401,2.0863467835340623,1.5279392502075957,1.825774158598577,7.287256,7.274539,6.701948,-4.380266000000001,-6.114064,-4.05499,jogging
-0.6186340528820217,0.2578792583049019,0.7236609893158547,0.07519895854862226,0.10188923770241659,0.08029313168779002,0.464783,2.706467,1.1640620000000002,-1.230255,-0.006912,-0.198975,-0.0015212910379930205,0.03798703881112519,0.0018891685148154686,0.11377666077297247,0.13521515199495115,0.093868459226962,1.872279,2.309135,1.15715,-2.390963,-2.087521,-1.133709,sitting
0.17622244202127704,0.9779406982978726,-0.1015779436170213,0.08861902195434046,0.03215557792007831,0.08654227617805754,0.442719,1.144745,0.09024,-0.018829,0.787872,-0.381363,-0.0009060259614348773,0.03871888258106197,0.0032721951955186753,0.06148672450129333,0.09592368982886319,0.040255230531154464,0.8420709999999999,0.979952,0.588266,-0.4546199999999999,-0.557631,-0.442209,standing
0.22003307449051324,0.9585894732958536,-0.12378386015460299,0.2384365794341846,0.4945127037532303,0.19486778599809246,1.1884,4.330627,0.5009,-0.680573,-0.185547,-1.105026,0.011095676544091387,0.35966620635487306,0.040903907890039254,1.0270194653444864,1.0537864510105301,1.0505941945005977,2.16209,4.2985940000000005,3.737538,-4.038619000000001,-3.52342,-3.177051,upstairs
0.2714387418478254,0.9702017420289822,-0.13572396268115958,0.2674320365422404,0.5320050229077518,0.28466485292529525,1.775787,5.129822,0.824493,-0.933151,-0.298477,-1.483765,-0.046205205655526924,0.08281938523687138,0.11825752221814192,1.176645040129446,1.2204249473923343,1.0369578482942106,2.576416,3.420095,2.726382,-4.333463,-3.429693,-3.086376,walking
-0.17231554143126168,1.0191121704331447,-0.14889611393596985,0.3012224626274572,0.4489446419272621,0.49149646844369116,1.281403,4.153778,1.989883,-2.145493,-0.4423829999999999,-2.901978,0.09028653403643318,-0.3028338921380633,0.041303905081495645,1.7016645659425886,1.6669195802821783,0.5483825906051313,5.209341,6.04979,2.192981,-4.07439,-8.149416,-1.852726,downstairs
-0.13022407084548135,1.2188813533527676,-0.030230839067055437,0.7350503683827864,1.5746292600762521,1.3173221671366282,2.214279,6.614868,3.013382,-2.173935,-2.227142,-6.235580000000001,0.03444420402724313,0.08054056026058656,-0.11460204767545153,3.7123425224668867,3.693230821931332,1.2503426837761986,6.864105,12.35114,3.457364,-17.369270999999998,-12.583824,-4.312628,jogging
0.6928252620556155,0.09558803704681415,-0.7191783936114076,0.010779186954257789,0.01891992742200431,0.009947888262290946,0.7849430000000001,0.2432099999999999,-0.5837399999999999,0.6298520000000001,-0.033997,-0.758545,-0.0013423871858848746,0.03868293895918736,0.00338579353056495,0.021149241370970375,0.030578029203463118,0.013000522324670286,0.128702,0.393326,0.284597,-0.356761,-0.184731,-0.148645,sitting
-0.2340729231738036,0.9628961655471561,0.11809973537643431,0.11072375491277354,0.02537687959321948,0.02544439996050451,0.420624,1.386551,0.249832,-0.412689,0.458618,-0.019012,-8.79984403799802e-05,0.03438897192683966,0.0005569103927406769,0.03048674211313125,0.09317095377492855,0.049013322354023614,0.705438,1.94914,0.3024429999999999,-0.484177,-1.479741,-1.516302,standing
-0.12719164758918083,0.9984702426499403,-0.13010081615052924,0.26028365694217687,0.4416287861315668,0.3036113920854893,0.893051,3.393677,1.248718,-1.448059,-0.321793,-1.863602,-0.03045746491228073,0.37472431339712964,-0.012980881977671476,1.8472289389715997,1.5625058845326179,0.6338279325230074,4.682551,6.280911,2.468441,-5.775924,-4.502345,-2.37505,upstairs
-0.16442571624762334,1.045104486160997,-0.03034208218888657,0.37537753560080617,0.5895312022619155,0.6632594674852229,0.992477,4.76886,2.077118,-2.007935,-0.769836,-4.64415,0.019481298821007482,0.050353749624866107,-0.015355497320471609,2.15974096651495,1.949069980149733,0.6513354618814596,5.557452,7.293264999999999,1.718493,-5.131734,-6.733194999999999,-3.036372,walking
-0.06795317095158603,0.994428629048416,-0.13347013055091828,0.1571752529081882,0.3648182550770608,0.17776044269392854,0.609772,2.787186,0.599792,-0.674759,0.280029,-0.922119,0.03927570183175033,-0.22453889857530543,0.04925676153324285,0.6735106781324482,0.7147738228225983,0.28871799382735674,2.252472,3.027737,1.062166,-1.3971360000000002,-3.158701,-0.977043,downstairs
-0.08278762428919574,0.9949072136474453,-0.036239069455727024,0.26339111919096475,1.063529947024926,0.36679079421621064,0.988693,7.75148,3.053085,-1.827621,-1.051743,-1.428131,-0.002367129145211133,0.013777683007209107,0.006658976519052527,1.5984379901675467,1.3332156107101913,0.5809934866802388,4.485416000000001,3.526683,1.959982,-3.650597,-5.086245,-2.364563,jogging
0.08002848710855398,0.8288684149607148,-0.5693833225627972,0.04158612476131892,0.02471040242836947,0.030317160159140204,0.259125,1.032318,-0.364471,-0.474838,0.49736,-0.865814,-0.000992288963585431,0.037890065994397724,0.0033242878431372557,0.06907410718972441,0.05168482977714181,0.05533727234625517,0.808404,0.514777,0.646893,-1.289474,-0.488776,-0.554391,sitting
-0.12081795479559705,0.9977125478249524,-0.06505206236897303,0.04383428331874871,0.02249968577215467,0.05630964889536427,0.167374,1.350967,0.155823,-0.402145,0.700104,-0.43309,-0.0013597505307855605,0.035677192807855675,0.003136262075371544,0.07448979816820653,0.14462075905427724,0.04108089958688682,0.7206239999999999,1.113475,0.525806,-0.5287390000000001,-1.140881,-0.3108869999999999,standing
-0.11630446353522834,0.9829765797280596,-0.10532791347342406,0.14167456505019366,0.2495486542948013,0.20339712986439104,0.360229,2.198959,0.703629,-0.807602,0.346802,-0.735992,-0.008979847505491053,0.294742856604958,0.01317764637590212,0.8232860245652147,0.6075943360383187,0.40422894796210507,2.397686,2.884693,0.994075,-1.387116,-2.523693,-0.993214,upstairs
-0.07268133069045227,1.0002269329369016,-0.04381899141063761,0.19442095794073821,0.3030896767341346,0.25997142360356923,0.508469,2.281464,0.993042,-0.858459,0.208679,-0.994537,0.013364600368324115,0.03420470651264014,0.05831796065628674,0.9459044217312819,0.679400463606179,0.3241649794141571,2.0306740000000003,2.07411,1.051446,-1.822977,-2.577392,-0.734132,walking
-0.26368504510556684,-0.9527790417466424,-0.0572914961612284,0.2751462442754738,0.519831718474377,0.23700167083189366,0.587128,0.561752,0.8706969999999999,-1.923004,-3.149536,-0.931976,0.07825780936128725,0.41444401560214605,0.038910593369088274,0.6825963177114959,0.9329446986559544,0.5744343775739913,2.430531,4.287434999999999,2.970017,-2.12713,-2.600027,-1.958656,downstairs
-0.03628022236916668,0.962709885320234,-0.0004027086718307045,0.4025226924605543,0.9462588422023075,0.4133130537617269,2.093216,5.284378,1.291183,-1.687286,-0.8578950000000001,-2.352203,0.02370840195514666,-0.013652238451217165,-0.008722841863139721,1.7028169689668116,1.1361994530391337,1.078032738829204,5.186628,8.639585,7.844956,-5.085436,-6.197378,-5.952127,jogging
-0.4846117643430509,0.41504480515420006,0.7626474095479475,0.03143558198157533,0.0678908225900671,0.06274317643105683,-0.213486,0.911713,0.8725129999999999,-0.823593,0.268051,0.339844,-0.0017028060212110863,0.03890358202189537,0.002892491361614782,0.07498605781761196,0.06669122459277815,0.04997294466500861,0.978756,0.6350060000000001,0.390734,-0.607143,-0.549507,-0.8622920000000001,sitting
-0.40086216923354495,0.9229275496931805,0.04156296655035498,0.0497823321662576,0.02421047363782202,0.04826821102586847,-0.128372,1.147049,0.310364,-0.604874,0.7651060000000001,-0.1539,-0.0018815188116400785,0.038467075794471985,0.0031128368440277608,0.05955061976134437,0.09116386847458985,0.0434182526530595,0.57882,0.743382,0.507151,-0.47933,-0.739242,-0.424472,standing
0.03351404588077698,0.9941250917615541,-0.14143614735432036,0.1964351846731065,0.23914656287649622,0.16086490509453497,1.0132450000000002,2.163986,0.3659969999999999,-0.668976,0.447845,-0.719681,-0.01007826453587212,0.3033337854471268,-0.02846424243454615,0.46637399011286423,0.7590525694427124,0.4379090683075807,2.059458,3.201186,1.360899,-1.977627,-2.661996,-1.574274,upstairs
-0.3404804270813937,0.9461813043397274,0.02959646712609414,0.23718491522457796,0.3915418377850171,0.2400187701243558,0.382126,2.24379,0.6911010000000001,-1.032745,0.186142,-0.800018,0.010864804343720509,0.029256929556185057,0.0024090662889518374,0.648443554825102,0.7303552566605367,0.5274578664237579,1.7085419999999998,2.499319,1.181026,-2.0399540000000003,-1.791408,-2.15612,walking
0.21953927360219963,0.9804050366636118,-0.188947368927589,0.28410382558566294,0.45036819744875084,0.3489623937536953,1.447205,3.867462,1.304535,-0.538361,-0.415604,-3.189484,-0.04002550466417907,-0.2962789533582091,0.11520895988805954,1.5363465439602784,1.743669143856435,0.6154839538335113,3.889431,6.629797999999999,2.806948,-3.677038,-5.379419,-3.206811,downstairs
0.6277242507942804,0.8729179271247035,-0.0647416489277204,0.9624056306932578,1.1746299975614607,0.7126369705931999,3.79808,6.29155,3.79863,-2.02449,-1.288971,-5.560226,0.0541009718082964,0.01954843596455904,-0.08310140374546944,2.1035030695221844,2.558811926204821,1.5700157484478252,6.549135,8.213703,4.284944,-5.742469,-9.897571,-5.006386,jogging
0.10656741207967428,0.17398288027414857,-0.982999588348685,0.026817019177297983,0.04611558184671843,0.00931591788113454,0.289413,0.267044,-0.933777,0.006531,0.07753,-1.049683,-0.0021967160828543406,0.03893354972345732,0.0030254401908686615,0.01630187921997586,0.021504625440249597,0.013337638313323531,0.214319,0.36608,0.171159,-0.336045,-0.2600659999999999,-0.176689,sitting
0.16393350741951707,0.9937443282193182,0.042236237550301724,0.021170798199451713,0.009983850382718745,0.022456415500390497,0.701782,1.232819,0.201416,-0.125946,0.794647,-0.290833,-0.0017546196662845434,0.03920788179849694,0.0031095135651509308,0.04587488441585927,0.11079173931147672,0.01851869323578019,0.484728,1.587776,0.2313239999999999,-0.370339,-1.444181,-0.182319,standing
-0.14981861403508728,0.953786300485256,-0.14043937290033606,0.29104677572945964,0.49095344564641713,0.37314295660975444,0.8834989999999999,3.632736,1.523483,-1.307449,-0.489151,-3.198212,-0.021084202656546466,0.33440560265654634,-0.05321987438330167,2.223521204626487,1.5740719851102987,0.8283731816511415,6.536905,8.070419000000001,1.99293,-4.850398,-4.36549,-3.269312,upstairs
0.3891955698471266,0.9500840286417159,-0.05486062467053237,0.4156951449816223,0.5842830451763895,0.5358174643454731,2.117096,6.507065,2.435181,-1.64003,-0.912766,-3.303543,0.029881216168091227,0.034868720797720895,-0.025988948896011495,1.5101284536230004,2.028565066509164,0.8016754489244415,3.737414,7.443527,2.1013490000000004,-3.523109,-6.246841000000001,-4.455956,walking
0.25326851912087944,0.9660955437362617,-0.16629173362637348,0.2766178274040461,0.426709220157158,0.26407059777415864,2.727585,3.471481,1.607864,-1.294617,-0.055847,-1.071075,-0.05863511215370858,-0.2384294897229676,0.08155384271671139,1.5254454449418036,1.126098811666078,0.7384364167577799,3.94961,3.916417,2.944382,-4.002969,-3.519381,-1.780032,downstairs
0.21308687318581945,1.034449567451818,-0.05127592410183203,0.7805479430978288,1.3485818467548527,0.7040526270408046,2.900452,7.105682000000001,4.185074,-2.321823,-1.5594940000000002,-6.351395,0.0854641857659828,0.12504560458383618,-0.0710918726176116,1.9555928638268392,2.3720778801230553,2.0643729346911655,4.885347,9.620517,6.775807,-4.933539,-10.794418,-6.056508999999999,jogging
0.8628863536069663,0.3369991585820894,-0.38767375012437777,0.011710789953997382,0.017262911047140093,0.017435588061205605,1.041916,0.822525,-0.204605,0.6375430000000001,-0.0489649999999999,-0.7923279999999999,-0.0015144632241813406,0.03867456171284637,0.0019926274559193867,0.04643495917593253,0.026435839845156368,0.051219064778985,0.537998,0.60054,0.482964,-0.866375,-0.5615479999999999,-1.03726,sitting
-0.08416147510712113,0.9901976786370214,-0.078715453376862,0.07163918107466821,0.017977367877865462,0.12789403565717183,0.339035,1.37085,0.287842,-0.235519,0.792984,-0.402435,-6.98178907137678e-05,0.039774481561822055,0.003466137382501806,0.06167379889049754,0.06568319437855459,0.046978363848617546,1.449013,0.599767,0.839792,-1.408655,-0.972636,-0.813992,standing
0.08222701420345498,0.9771588119001942,-0.159275951247601,0.23943511101078604,0.3717708089305074,0.2529763766615569,1.186951,3.027023,0.569244,-0.965271,0.101105,-1.787994,0.03304713538821692,0.3553606031993752,-0.01322741747951615,1.409439565984259,0.9211993334915701,0.92559218750199,4.286534,3.364207,2.962047,-3.4843260000000003,-3.38994,-2.305422,upstairs
0.2043329862313138,0.9941652798977174,-0.09243579956726981,0.3388356485994262,0.5075763201746692,0.3822653663094937,1.722046,3.800064,1.029312,-0.87825,-0.231873,-1.9422,-0.0008117403270841648,0.09465425767850034,0.05189356382130054,1.552114380127941,1.164844093532904,0.953891686468237,3.477,6.710186,2.597932,-3.693954,-4.877384999999999,-2.377451,walking
0.042120333672086736,0.9947208506097553,-0.14470879031165304,0.2609595942919597,0.4285380176857557,0.23220851804499265,1.650848,3.857803,1.063797,-1.055099,-0.4951319999999999,-1.5048979999999998,0.018339896765313186,-0.21495903578802447,0.05604373262216113,1.0513395646986812,1.361663241678226,0.6736531782387283,3.665947,6.035416000000001,2.557589,-3.299524,-6.099530000000001,-2.434296,downstairs
-0.09504912600249504,1.0302007118160763,-0.15538004705043668,0.4849260680618751,1.284403217691916,0.680097281298128,1.874939,7.844405999999999,3.796036,-3.3083190000000005,-1.658386,-5.38916,0.0524773494041171,0.07187147435897463,0.1504086394005058,3.225704089225521,2.4573176663395313,1.3344739377161172,9.760004,7.607282,4.682229,-7.370481,-14.712139,-11.532685,jogging
0.0005993208990913063,0.017926950167384038,-1.0029518361549583,0.03713035892657267,0.03722074569440987,0.019084285311145942,0.597992,0.382156,-0.4061889999999999,-0.251923,-0.2198179999999999,-1.660553,-0.0006375515204338599,0.038678356091419695,0.0018245241138872726,0.05182501854051213,0.06636645052398486,0.08987463185322045,1.774369,3.455565,1.283212,-2.250945,-1.7960779999999998,-1.859011,sitting
-0.182001618276515,0.9872985323863597,-0.014895249526515128,0.08785641410790787,0.027139702446567854,0.048821352661065916,1.848633,1.697296,0.3973239999999999,-0.654968,0.4471739999999999,-0.8953399999999999,0.0008553519654841805,0.040783279769894556,0.005311423585810159,0.11222120234237887,0.16284469092043988,0.07860596433719665,4.053877,2.750528,2.352202,-3.56489,-4.08806,-2.091627,standing
-0.4189904539841215,0.810345516906791,-0.2569798650396946,0.18424344397797596,0.3535060504835315,0.31549530309505486,0.308701,2.317245,0.461334,-1.974869,-0.407898,-1.768402,-0.08646658877946871,0.2793405589376303,0.01359502447030738,1.8980118704346827,0.6486627222958893,0.5662692395834026,4.361349,3.458253,1.961969,-4.220409,-2.676525,-2.096885,upstairs
-0.30442968638497697,0.9408961151799682,-0.1324983809076684,0.2257222684080623,0.49753418967252644,0.37067035419623673,0.7486109999999999,4.0775760000000005,2.030334,-1.806671,-1.39151,-1.602768,0.033843521325511335,0.0608947888060887,0.15030951672744602,2.088335432674483,1.192968774064478,0.4907353009782012,4.87437,4.710302,2.052289,-4.658988,-3.902474,-1.613772,walking
0.27219759655728903,0.987705422270038,-0.1253806331360946,0.35938677782693895,0.44434229400300274,0.3476440913188954,2.602966,3.695496,1.402969,-0.962418,-0.350464,-1.819794,-0.10345192113910193,-0.3213798181818178,0.11162084611171974,1.411250380556237,1.2521722268535316,1.1930921814998598,4.418323,5.299304,3.819306,-3.775946,-3.872182,-2.838663,downstairs
0.22014692544039358,1.075024665710775,-0.11301740188447383,0.5881327587546165,1.0921098751060014,0.6022734982283274,2.257217,5.016235,2.987366,-1.914139,-1.371017,-5.565323,0.027548405899459925,0.1358324221022022,-0.004572057332779423,1.9765767281087088,1.867221579068878,2.049239825654082,4.54269,7.620931,4.744431,-4.475151,-10.055094,-4.581908,jogging
0.4736739455457082,0.2013908660214555,-0.8613132055736963,0.04839709000411997,0.04043289709391048,0.0321011216996547,0.70163,0.475998,-0.6297149999999999,0.2560119999999999,0.014053,-1.066925,-0.0008275031290589242,0.038004029755579205,0.0024367768331562166,0.05079231609191692,0.0450159954662717,0.058244265847506894,0.569438,0.918037,0.620517,-0.741208,-0.4128489999999999,-0.795669,sitting
-0.052903981493464494,0.9910649000905953,-0.13476047055778478,0.05341590723212573,0.01651650678911061,0.12652984040189913,0.133926,1.125595,0.171997,-0.270126,0.8394010000000001,-0.430725,-0.0003776055322496085,0.039993241740954345,0.0026247907708442505,0.14200666267041231,0.1206436140132742,0.06231791728107125,1.200113,0.5227390000000001,0.564349,-0.658733,-0.7552949999999999,-0.300653,standing
0.18474266694011468,0.9936553625922888,-0.1422089561115668,0.39522065161823655,0.6713611782315784,0.3117333593685551,3.25322,5.916199,1.358078,-1.447861,-0.645798,-2.029053,0.040645688203418066,0.42967275323051213,0.05677388661942473,1.447292333923611,1.297822916507515,1.467845979901588,4.374567,4.921644000000001,3.639645,-3.5785760000000004,-4.215891,-2.63111,upstairs
0.20222179019725076,1.019258312612077,-0.07213451803148072,0.4368841701952569,0.5555658762049026,0.4815820299903093,2.786316,5.245605,2.076447,-1.196106,-1.080231,-3.898987,-0.10305220181818191,0.14273414686868707,0.14475030202020192,1.3632583215501382,1.21566959060252,1.3869174993940754,3.867468,3.818605,3.5305800000000005,-4.827428,-3.625376,-3.637591000000001,walking
0.08717995153813746,0.961051764854614,-0.2453261934260433,0.2969272064038821,0.45155615320820763,0.23906735284007927,1.574341,5.050841999999999,1.090195,-0.8724209999999999,-0.183395,-1.245758,0.009452237993138952,-0.25181050600342997,0.10994329116638073,1.5116801188819502,1.346181845439136,0.6398053645036975,5.164237,3.716982,2.803554,-3.330797,-5.576607,-1.655243,downstairs
0.16333017004712136,0.9940112026224142,-0.15884080045072754,0.605439096442491,1.4752037242316016,0.40567026779567555,2.36586,7.970352,1.1483,-1.747955,-1.033722,-2.197144,0.10165273977154712,0.11844205649013478,-0.06606661079958454,2.873087509843604,2.438573400215407,1.8731596948423634,8.185047,10.369621,3.855981,-4.6440980000000005,-6.705097,-6.734757000000001,jogging
0.3795529402261713,0.3877647038772223,-0.8551292108239106,0.01433870995078765,0.007580817314828416,0.004032803846228409,0.445633,0.429047,-0.821838,0.344421,0.322678,-0.889008,-0.0036907070094988684,0.03936197543399927,0.001977114313789706,0.006633843238636083,0.010953291876916195,0.007541178632717171,0.058239,0.163751,0.069228,-0.1620839999999999,-0.28042,-0.070852,sitting
0.038715078706957076,1.0009914236120885,0.008378965987350637,0.04468614886306149,0.008124835063374107,0.030482539737687078,0.192978,1.168976,0.102234,-0.2261659999999999,0.8124239999999999,-0.275208,0.001598303673120727,0.037288885820045595,0.004755936788154886,0.048030357060870894,0.09054950191773638,0.028235833628897387,1.029709,0.830375,0.261153,-0.434584,-1.603434,-0.400255,standing
0.06054741232082961,0.9436211436413525,-0.24368020097590704,0.17275863238339753,0.34127569488198567,0.2707465567173876,0.643051,3.131271,0.3125,-0.656586,0.056442,-1.596954,0.05243084174667074,0.30239105357695895,0.011071497057912676,1.375341427737827,1.335239648345463,0.620793385966721,4.388180999999999,4.177464,2.284138,-2.301504,-4.225632,-1.7498630000000002,upstairs
0.11134408395285565,0.9747472828649127,-0.15769481414324577,0.21587783851455697,0.408095404309565,0.26870668954880494,0.949142,3.105927,0.517838,-0.834427,-0.204407,-1.078873,0.0008725243521411474,0.09398312865282117,0.08670887925013779,1.3899311671527042,1.39563748824862,0.7267255445350173,3.5642949999999995,3.869083,2.752312,-2.483501,-3.608035,-2.2354700000000003,walking
-0.23304293861740166,0.9881550089392127,0.12098358700834329,0.45926435551977196,0.6511543499331344,0.4539705738333081,1.846497,4.106171,1.999771,-2.319321,-0.905548,-1.973969,0.07462097753491184,-0.3631716247723129,-0.13342256102003658,1.9127570952599535,1.8765219882044852,1.2678280898289893,5.125067,7.093653,4.010471,-4.886591,-10.054234,-5.340531,downstairs
-0.38442825925925905,1.160998285565939,-0.009439636898580822,1.327076719924047,1.7097227853549446,1.0585556824595848,5.343643,7.545517,6.933853,-7.15799,-1.728622,-5.499435,-0.2326192325008789,0.08749501090397462,0.022753970453746077,2.033208663663679,3.5313204964884752,4.09462870447513,5.606187,17.581418,11.439444,-9.354818,-18.376108,-12.14805,jogging
-0.4553195670579531,0.0932464209261485,0.8805932919863184,0.01422088125281238,0.009664231118546968,0.007873130368034702,-0.174957,0.2429199999999999,1.113892,-0.885818,-0.020447,0.705063,-0.0006323019273952085,0.03956945714820349,0.0029206703779940026,0.020930246399961997,0.03325597163752898,0.01811885050256674,0.4718189999999999,0.5596,0.452912,-0.30349,-0.435622,-0.28594,sitting
0.012153864512063331,0.9959282436082129,-0.11057044004321193,0.06757927103269344,0.02072685421753624,0.08361131233436893,0.36908,1.3547360000000002,0.413422,-0.4498439999999999,0.75592,-0.260895,-0.0009246640845712288,0.03468902150733616,0.003359362435067912,0.14380838712030294,0.2210626595350566,0.1110083567453296,1.265803,1.847892,1.010559,-1.492532,-1.66953,-0.962272,standing
-0.16715325105189355,0.9618520455820476,0.12453471458625512,0.5028820312544409,0.7366463277261757,0.4932967916683112,2.034851,4.21991,2.79483,-2.618835,-1.081863,-2.031845,-0.10456454974946293,0.5716678339298492,-0.09986018110236232,2.1389843488285205,1.914962644106162,1.9502840548343259,5.584412,8.108591,4.2045,-5.710715,-8.997221000000001,-9.090319,upstairs
-0.21882024455732932,1.0313605162070625,-0.018990986937590715,0.6040600261661326,0.6591088636327902,0.5119167910505692,1.683807,5.157639,2.959671,-3.002014,-0.354141,-1.934692,0.10327720191364102,0.14541609421000976,-0.15883496172718342,1.1150704262011397,1.7841079977143233,1.7006491857462085,3.422251,4.809293,3.813707,-3.353699,-5.602586,-6.105408000000001,walking
0.2686992776093545,0.9634547769597216,-0.11851164400173214,0.18597115975552964,0.41987267547706597,0.1892103506927025,1.146149,3.70607,0.803879,-0.355667,-0.2003329999999999,-0.840698,-0.05655821972699232,-0.29535149713782544,0.06534391897842375,0.819635866609257,0.8704284800554107,0.41564180388277844,3.809121,3.183348,1.627367,-1.804955,-3.3041089999999995,-1.248082,downstairs
0.09055993941908712,0.9874485987551835,-0.1528121365145228,0.43506721545942273,1.1757721709206508,0.4318970940422797,2.161011,7.148361,1.386383,-1.881073,-1.184052,-1.471039,0.01953929926393263,0.09576524921135646,-0.04835209148264979,1.9085889074937727,1.1464371896725187,0.8371719505271146,5.851380000000001,4.342146,2.804004,-4.321297,-4.198246,-3.632807,jogging
0.5392071166880822,0.42917844820109075,-0.7324091085769362,0.01016908615644532,0.04131017513323195,0.02434034203015589,0.7287899999999999,0.6436,-0.543076,0.32869,0.28569,-0.8061520000000001,-0.0016387939526944762,0.03809845858733658,0.0038819915467772173,0.02580909977240295,0.022967612579363163,0.03624541212615786,0.366154,0.322165,0.632033,-0.481364,-0.281181,-0.4343329999999999,sitting
0.24002913641183826,0.9717111966644104,-0.10389402275137435,0.04021132621752474,0.017179221384100708,0.06692357052456122,0.511017,1.10527,0.057098,0.069412,0.65274,-0.343369,-0.0012718813311213032,0.03743480423538587,0.004181736313067216,0.07387382395067434,0.1079201208719346,0.04292244572811962,0.7933640000000001,0.8623379999999999,0.409629,-0.739477,-0.999691,-0.4958899999999999,standing
0.12509800656814452,0.9781103612479458,-0.11445466666666668,0.21140887343990603,0.35236668192683157,0.2557643151371075,0.902176,2.433701,0.529465,-0.736893,0.113754,-0.979828,0.051003043768236805,0.37144044351813293,0.028967175906627757,1.013871710075304,0.9048529888750049,0.4950860373369462,2.571466,4.354858999999999,1.953954,-2.386018,-2.786969,-1.530155,upstairs
0.1747693266236234,0.9915983205469051,-0.038868168059248025,0.23201687444526126,0.5199336055241558,0.2361055785295562,1.25206,3.497284,1.031479,-0.741348,-0.473999,-0.872086,-0.013304591066615312,0.021842594147092758,0.032585513092029214,0.9696063456990167,0.9957933688706789,0.5517116548259563,3.483419,2.306652,2.572291,-2.659936,-3.058971,-1.312874,walking
-0.02507366769073223,1.0653110819252407,-0.06775725601638495,0.3915435464026252,0.6232334546561498,0.6521483227038998,1.781784,5.407058999999999,3.376434,-1.715225,-0.439499,-4.426849,0.06167970297029707,-0.3338942433559148,0.10296322824387698,2.004601746054594,2.167674331133939,0.9258415734204739,5.327874,8.647093,2.780341,-4.446243,-11.076394,-3.3053760000000003,downstairs
0.0486698153530836,1.16330689398174,0.007703512576858588,0.5914026779083121,1.2733838530420165,0.9491414751717975,2.1913150000000003,6.635497999999999,2.884796,-2.834702,-2.109329,-4.311523,0.010207875897242119,0.084053356441254,0.1251739792217608,2.8281839038044283,3.6161278808285937,1.2978095669657896,6.205403,14.812155,5.921925,-10.626884,-11.934621,-5.657111,jogging
0.6042656763620602,0.7116164506186249,-0.38086339385717366,0.03081107593042705,0.033394373961397224,0.029164751439978032,0.703918,0.787628,-0.264221,0.525909,0.633621,-0.4988399999999999,-0.0027284717001868266,0.04104987416199582,0.0019366972194746583,0.023960212866008985,0.028128566787086574,0.017311880865860448,0.2247289999999999,0.2977619999999999,0.11155,-0.237033,-0.225094,-0.261154,sitting
-0.04459101748337849,0.98305629500123,0.1975329851021918,0.03761827325182736,0.018155134142867027,0.07263787117889794,0.414017,1.283768,1.391724,-0.305573,0.664108,-0.3420559999999999,-0.0019736508292804633,0.039759691981543936,0.0031613758573388264,0.09396758017627625,0.12858846299768947,0.045652471737712925,1.444683,3.588974,0.62737,-1.009251,-2.230099,-0.46773,standing
-0.10115415298804793,1.022309467330676,-0.06582642988047804,0.28823362265422653,0.5428609745048937,0.4394775078271418,0.8925780000000001,5.236587999999999,1.347198,-1.355621,-0.7380979999999999,-3.116043,-0.043044031983805624,0.3501239020242912,0.09711364251012164,1.9917278141311245,1.6924269176540452,1.099978527214938,5.03643,8.91895,3.771601,-4.9101300000000005,-4.200889,-2.565464,upstairs
-0.060268265298576366,1.045016605657235,0.03277926049177294,0.2919881100633316,0.5752201781303766,0.5994971962057337,0.918991,4.652023000000001,2.001282,-1.90274,-1.701569,-4.159821,0.0045432588499719085,0.05378539314478368,0.12525030679902602,2.1482345498734894,1.8918323515929825,0.6391783569828305,5.229462,7.597347,1.956015,-5.546179,-6.113964,-2.687306,walking
-0.1927257793258425,0.9436529986516842,0.20756423640449423,0.22149799281244267,0.4097328194511525,0.2879414035128619,0.809067,3.318939,1.035339,-1.47287,-0.252686,-1.152161,0.00910757586837295,-0.3090264145338206,-0.08093762659963448,1.0624169193014312,0.9344985212347804,0.5381245077552957,3.5794620000000004,2.59608,2.268956,-3.4087910000000003,-4.590169,-1.791626,downstairs
-0.1356556773746882,0.9686404713375814,0.16746790750484597,0.4687605037414914,1.0237590316724483,0.47730735184120965,1.602814,4.366959,2.726151,-1.914001,-1.570084,-2.013977,-0.05139907476110176,0.0015759058459809047,0.15189599859471623,2.553126316668573,1.3201349088863814,1.0101916813504006,5.544011,5.928066,3.921211,-6.100398,-3.504011,-2.207273,jogging
-0.3896371236255267,0.41542670465522463,0.8159348412290605,0.011095616569611819,0.057713658455389644,0.02511705904194833,-0.276688,0.513245,0.954529,-0.495911,0.197235,0.751892,0.0005797240087418128,0.0380378750130087,0.0031185025496930033,0.03700469955539209,0.021520884162927235,0.05292644238159593,0.581113,0.312311,0.959475,-0.2903219999999999,-0.27734,-0.79676,sitting
0.0189000914745307,1.0004883126005344,0.07356069147453081,0.037629527810451605,0.012356528065779086,0.03678024972130707,0.187347,1.296829,0.265762,-0.403259,0.738159,-0.118622,0.0004737365620588541,0.0370949144315343,0.002254494081876423,0.06415143908428403,0.2382936179407593,0.04491171985546239,1.222446,1.411513,0.6051949999999999,-1.31643,-2.9858740000000004,-0.802663,standing
-0.14443201685671792,0.941642493306892,0.2360059885969262,0.19703579163452845,0.33807919785475726,0.28616775134427846,1.5460969999999998,2.625778,1.978302,-0.88739,-0.3260349999999999,-0.495392,-0.08410134795763997,0.38881530660615193,0.019450247100352973,1.308585001925442,1.2274141841472748,0.520533262297522,2.553645,3.982612,1.397383,-3.4704010000000003,-3.781563,-2.089198,upstairs
-0.0823871850141133,0.997064472927894,0.11789879343084406,0.2823258760737267,0.6120821412274497,0.31582977552111263,0.858917,2.97435,1.365036,-1.139999,-0.440216,-0.678421,0.027482527972937803,0.040079468904501724,-0.06576199453551904,1.4783574157502872,1.3937918477146978,0.7804226604588792,2.886123,3.224049,1.673442,-3.279835,-2.987174,-2.184206,walking
-0.15671565384615374,1.007091523351647,-0.11097795924908423,0.28430113067304635,0.4505907914785809,0.3885540161461144,1.026413,3.163361,2.754578,-1.919724,-0.286728,-2.4104,0.10403899674267085,-0.28803197766402916,0.11382131177291774,1.4952797852287778,1.2797907691952013,0.6360895620240974,3.799954,4.331993,2.194322,-3.853963,-4.988923000000001,-2.466806,downstairs
-0.05042147798456645,1.1071135474353133,-0.015067149568769877,0.8155641322923564,1.476284049402551,1.0972090456415307,3.903168,7.342041,5.695053,-5.686142,-1.8134,-7.462402,0.06236844922864368,0.013897524522219639,-0.05580217038913193,2.660758411424595,2.3094249985903414,1.103376978515593,7.841577,8.601016,3.2945300000000004,-7.413314,-13.91007,-5.149725,jogging
0.5020103915034343,0.30070515441363493,-0.8153203516916825,0.016738999262835254,0.05009724159608528,0.024675509012349068,0.735107,0.68898,-0.575577,0.4179229999999999,0.134354,-0.941574,0.001082040716402526,0.03879381007602126,0.003454033500837529,0.021980057200634995,0.02276533914519788,0.020186785477333897,0.279128,0.29769,0.276294,-0.212286,-0.4321239999999999,-0.203241,sitting
-0.17048305642527334,0.9830811209595689,0.054079781506926335,0.08049755053224981,0.01219814857093872,0.0706067887750442,0.231262,1.056381,0.201355,-0.434372,0.911987,-0.108231,-0.0007160610242956524,0.03829474928709926,0.0025936359073799545,0.05260815475875578,0.08946609874427079,0.05255774970339981,0.45064,0.5231210000000001,0.521838,-0.431355,-0.539578,-0.930029,standing
-0.1627219202207729,0.9149616613146005,-0.16679824385348693,0.2528634203060551,0.4493317395253603,0.40280897088215895,0.646271,2.450867,1.23877,-1.56427,-0.574615,-2.8358,-0.006264941747572767,0.4642812657128259,0.11453931016862565,2.087610034404815,1.1297104311227169,0.6033383131546223,6.295419,5.241009,2.381695,-3.823342,-4.415195,-1.968154,upstairs
-0.18834017565250505,1.014290965517238,-0.013168370927795783,0.25072097002316784,0.5808352812794452,0.4394960029688474,0.805984,5.245575,2.220764,-1.177109,-0.98497,-2.614746,-0.014920250144871553,0.1193269043847787,0.1089590204751786,1.8819199040598258,1.3225641481123427,0.9258747811298677,3.734957,5.991527,2.443039,-5.359904,-3.414771,-2.180083,walking
0.13608308541666647,0.9879505312499994,-0.09757711666666664,0.2506794321962422,0.5580483014243635,0.26020697750752736,1.476395,4.128235,1.5646209999999998,-1.217392,-0.437393,-1.350433,-0.016585917815482534,-0.3683756071049839,0.08891268769883347,1.0544966990326852,1.0610125084536357,0.7422271288660504,2.777637,3.967017,2.588899,-2.294559,-4.425703,-2.282286,downstairs
0.09308929382448541,1.0082731172264365,0.027078798483206896,0.5698147414606857,1.250996720745206,0.31970271191135397,1.717438,6.6881710000000005,1.055527,-1.888947,-1.520599,-1.512787,0.05013394087912085,0.0937533353846153,-0.05121974307692307,1.922184364996052,1.3822781245142086,1.6867389816964211,4.524596,6.990055,5.465921,-5.4470160000000005,-4.674763,-4.779351999999999,jogging
0.5281816614890659,0.5186540861679956,-0.6760643567337736,0.04047026109967282,0.06265935321891283,0.02449270130648659,1.021362,0.764984,-0.4637449999999999,0.213684,0.180923,-0.932297,0.0008023769872639432,0.03931930909090889,0.003787117610891521,0.04327103304989,0.04981701714208468,0.04386526564759145,0.543838,0.875288,0.550048,-0.714583,-0.791802,-0.752943,sitting
-0.06946660622593089,1.000218188703465,0.03788326893453162,0.03215341088621211,0.007647778282011754,0.03870471164462425,0.124252,1.170578,0.192581,-0.251038,0.850189,-0.218048,-0.0012608236186348826,0.03818725937161432,0.0037841586132177883,0.03997201851692995,0.12284824423546295,0.036465906081134244,0.44756,0.725969,0.3537659999999999,-0.775794,-1.036979,-0.542075,standing
0.08966476879632901,0.9766308552770906,-0.09175713978115076,0.1935421486593165,0.284604143946227,0.21681898579716485,0.884048,2.676559,0.782089,-1.008469,0.270432,-0.973251,0.004687256630824379,0.3085056788530461,0.03409963405017921,1.0544821663515098,0.7997965667100584,0.803230585236116,3.226195,4.262821,2.35438,-2.37482,-2.754409,-2.967206,upstairs
-0.011282946284329558,0.9994003863085604,-0.019702193457189023,0.23788628809854437,0.434367629068797,0.2594632937300607,0.768311,2.997559,0.754242,-0.986313,-0.008804,-1.083206,-0.04421360880245658,0.007444122210849544,0.04828014513817806,1.083452428873075,0.8180594157388279,0.903164467489449,2.74114,2.018312,2.160593,-2.142939,-2.420723,-2.968579,walking
0.3834011384129844,0.9190657191163207,-0.16697711767358023,0.3344099328738486,0.5343167292804151,0.2145534503843813,2.322449,4.27832,0.668427,-0.580017,-0.573944,-1.241119,-0.09427814862385334,-0.29445073027522933,0.07703305366972474,0.7609174555912419,0.9969301151179896,0.49165570516310386,2.491919,2.843633,1.450235,-2.150486,-4.047753,-2.033574,downstairs
-0.2821570102135561,0.9429494273444732,0.11108506708449403,0.46818172715250195,0.9648191173012347,0.4075290282392752,1.146576,5.697296,1.79541,-2.167999,-1.011871,-1.19989,-0.05430290652225095,0.09134486578761455,0.05169811867200365,1.4957428716175865,1.0603083363674644,0.7972221610342396,4.356161,4.026816999999999,2.680115,-3.52144,-3.303425,-2.234934,jogging
0.43303484030262696,0.6225008790512218,-0.6632882754319598,0.01542254169273891,0.036682707816293667,0.028784550397764237,0.597549,0.7725069999999999,-0.526947,0.250854,0.444885,-0.857742,-0.0015797756031894045,0.03754628186807499,0.004238628766697722,0.0408907359563669,0.035852735526236315,0.057398067587088854,0.370369,0.499749,0.8553200000000001,-0.776105,-0.5311279999999999,-1.066185,sitting
0.15956373358892822,0.9859518578642237,-0.10801986057602372,0.03256637883490847,0.017313264061669255,0.05721115799792623,0.385529,1.218307,0.0800169999999999,-0.07222,0.73912,-0.370346,-0.0008517418102632078,0.03875728204885446,0.004165690115508386,0.08666209334221386,0.22349436431407274,0.05317414691375094,0.432402,0.919939,0.421505,-0.476387,-0.917707,-0.338626,standing
0.08359405437756491,0.989708932968538,-0.11683293604651147,0.13311158306599039,0.19915043861790507,0.17254387041889188,0.472336,2.179016,0.429352,-0.551331,0.255814,-0.730759,0.04016324913134123,0.32289224947880524,-0.006041846073662274,0.7019526806090655,0.6489708479506163,0.33430479119998563,2.451301,2.913614,1.090088,-1.566818,-2.326357,-1.292565,upstairs
-0.3184804441494796,0.943449281805184,0.08618440800490101,0.2615065358728566,0.4259115184529162,0.2602678915505631,0.619095,2.498383,1.0651700000000002,-1.236832,-0.194565,-0.779037,-0.005167657763975141,0.05109644202898542,-0.016849211387163485,0.7845382807275341,0.9869589208095916,0.38744169469960704,2.120664,2.75305,1.170794,-2.21732,-2.698131,-1.262356,walking
-0.2861692283687945,0.9900220931442075,-0.05683059432624109,0.35712077926210267,0.5352297198877777,0.36679398364925825,1.430664,4.324997,2.059311,-2.036499,-0.712585,-2.335327,0.12581418509615386,-0.2865642668269226,0.08342413076923082,1.660388131890352,1.5130969636107023,0.7210753126437276,5.215978,5.359224,2.586856,-4.382128,-5.276049,-1.897262,downstairs
-0.11373901203893434,1.1093448399077854,0.003329535348360642,0.8515075324149645,1.551032339218113,0.9201881770851082,3.456284,7.114868,4.244202,-5.27449,-1.6422580000000002,-6.151962,0.056307649259547794,0.02933679605092231,-0.01731365679397251,2.9973374697723734,3.2665095460805773,1.5683228250625678,5.965425,13.157371,4.464745,-8.273987,-17.260512,-5.802976,jogging
0.42647954133001903,0.42481815413300134,-0.8066759997336397,0.022985023147921807,0.02430122331930652,0.02142625008297295,0.942551,1.029709,-0.412354,0.080109,-0.382233,-1.564819,0.00017830882617292233,0.040403389358260024,0.002837880370303787,0.05002062845092552,0.0503715212446502,0.034530686561448753,0.691526,1.817624,0.610873,-1.944916,-0.862458,-0.6916859999999999,sitting
-0.16936017767477776,0.979189583880518,0.10164823200720977,0.029732168897735667,0.014166137314098453,0.10001965239182625,0.12529,1.1934049999999998,0.392303,-0.421112,0.845184,-0.233917,-0.0007045462842242532,0.03914150795306406,0.0034742368970013047,0.08925153335971467,0.12761112486633955,0.033464429409498335,1.607332,0.935407,0.397458,-0.871627,-0.956263,-0.343887,standing
0.2235671818181815,0.9999227025162363,-0.05336777637987014,0.44153512740569767,0.5188097357376729,0.3636748401799991,2.923737,5.13826,2.048035,-1.511414,-0.2666929999999999,-2.669556,-0.07755078456458918,-0.43734788650433337,0.08648254849360289,1.412700111300914,1.5072405952768355,1.0088168911057507,5.941973,6.733403999999999,3.496834,-4.141472,-8.44098,-2.75176,upstairs
0.011533968270427216,1.0445278494400643,0.00890845126503526,0.409827066920188,0.565162312086318,0.45011190833252585,1.952942,4.726959,1.267731,-1.40303,-0.2156829999999999,-2.151291,-0.012341163968887958,0.07953943893210012,0.07190371620769401,1.7801424157187866,1.336203270249425,0.7883683026858208,4.746733,4.384125,2.044189,-3.983754,-3.789514,-2.949949,walking
