acc_x_mean,acc_y_mean,acc_z_mean,acc_x_std,acc_y_std,acc_z_std,acc_x_max,acc_y_max,acc_z_max,acc_x_min,acc_y_min,acc_z_min,gyro_x_mean,gyro_y_mean,gyro_z_mean,gyro_x_std,gyro_y_std,gyro_z_std,gyro_x_max,gyro_y_max,gyro_z_max,gyro_x_min,gyro_y_min,gyro_z_min,activity
0.45476000000000005,-1.00282,-0.09140333333333332,0.15682293023750024,0.21780739894338477,0.13275485440395804,0.7335,-0.7172,0.1293,0.2424,-1.4817,-0.3046,-0.06772000000000002,-0.07874333333333332,-0.23081333333333331,0.3817310764905324,0.458147582518795,2.0682853217653228,0.6925,1.1491,3.5731,-0.9105,-1.4683,-3.1056,0
0.45867,-1.00423,-0.08945666666666667,0.13796440357995396,0.23385825968028084,0.11139707692361787,0.7001,-0.6219,0.1061,0.2365,-1.4469,-0.2959,-0.05195333333333336,-0.020623333333333316,0.13771666666666657,0.4419274911139822,0.6380401212567539,1.8827969019123054,0.7219,1.6331,3.5336,-0.6882,-1.1598,-2.8868,0
0.44606333333333337,-0.9913600000000001,-0.11880000000000003,0.13202336126436195,0.19886704725207396,0.11687415867298143,0.6122,-0.6838,0.0464,0.2549,-1.4608,-0.2999,-0.04487666666666666,0.040786666666666666,0.11339000000000002,0.41376279451690284,0.5222995743185449,1.8864064399786977,0.6868,1.0349,3.1841,-0.7274,-1.1092,-2.8416,0
0.43215999999999993,-0.9910633333333332,-0.09219666666666666,0.12688095316422426,0.19016757489180403,0.11472355824368399,0.6712,-0.6902,0.0865,0.2451,-1.4076,-0.287,-0.0555,0.06587,0.0475166666666667,0.38434916955540704,0.5983299338647705,2.094557625104895,0.7068,1.2034,3.369,-0.779,-1.1317,-3.1476,0
0.4315466666666667,-0.9955066666666667,-0.07208666666666667,0.13138588265456658,0.25614995868305995,0.09656506376650868,0.688,-0.6054,0.0614,0.1589,-1.4198,-0.2747,-0.08188666666666668,0.03966333333333334,-0.010026666666666654,0.3556862281836903,0.6887328557141948,1.6279062270573066,0.6,1.6908,2.1305,-0.5351,-1.0186,-2.8684,0
0.42354666666666674,-0.9476966666666667,-0.09242666666666666,0.11939254506078659,0.1988486037916411,0.09721962670208087,0.6302,-0.6247,0.0918,0.2536,-1.359,-0.2544,-0.01060999999999999,0.11303666666666666,0.09441333333333334,0.4192561034038494,0.5397522448777538,2.141564340211232,0.6902,1.0346,4.5253,-0.636,-1.0689,-3.4323,0
0.4511066666666666,-0.9814299999999998,-0.09527333333333331,0.13649981415506693,0.20523889553732083,0.1203825452272974,0.6972,-0.6746,0.0883,0.2616,-1.4422,-0.299,-0.08576333333333332,0.07800999999999998,0.0042533333333333685,0.5204997588414647,0.474314572867504,2.0831773557904665,0.8993,0.8415,3.6139,-0.9033,-1.1547,-2.8025,0
0.4500500000000001,-0.97969,-0.058426666666666675,0.12101890063268969,0.19253008425912974,0.11496581780845912,0.6788,-0.6574,0.1109,0.277,-1.3447,-0.3135,-0.04633666666666667,-0.06963333333333334,-0.016593333333333307,0.4365116505008641,0.5165987112892821,1.8440941884340105,0.8757,0.9016,2.5327,-0.8533,-1.0897,-2.8709,0
0.45373333333333327,-0.9624633333333332,-0.10063333333333335,0.13111433634581038,0.2504306476828477,0.09117944162316768,0.6656,-0.6248,0.0374,0.2524,-1.4911,-0.2458,-0.006163333333333326,-0.049846666666666664,-0.00607000000000002,0.2901270856893143,0.5331986650094092,1.9698741952041083,0.7212,0.9796,3.0666,-0.6453,-0.9608,-3.1815,0
0.4523233333333333,-0.9617833333333335,-0.09956999999999999,0.1302496003920889,0.16064343485159777,0.1234148656725174,0.7186,-0.6856,0.1702,0.2547,-1.2654,-0.2855,-0.014036666666666666,-0.1467166666666667,0.11147333333333333,0.6993582928032266,0.5735263581612854,2.011431495560645,1.1747,0.8563,3.431,-1.4119,-1.4886,-3.0078,0
0.43069333333333326,-0.97527,-0.08491666666666667,0.12554820185293675,0.20892615119982563,0.11911276628453403,0.6245,-0.6741,0.1047,0.22,-1.5303,-0.2878,-0.026900000000000004,0.017760000000000005,0.023929999999999983,0.5189085415396036,0.5997400204571404,1.9315708365615725,1.0513,0.8811,3.5839,-0.9354,-1.6018,-2.8474,0
0.4143133333333333,-0.9754466666666665,-0.10266333333333331,0.09452875035500131,0.2011851175913116,0.10820539690579314,0.6187,-0.645,0.0402,0.2917,-1.2702,-0.3584,-0.05239666666666666,0.006513333333333334,-0.02067333333333332,0.4193495147317416,0.5056133132886363,1.782175813907865,0.7367,1.0776,2.8542,-0.72,-1.3419,-2.7183,0
0.42721333333333333,-0.9987233333333335,-0.09489999999999997,0.1346591091540447,0.23707622182332624,0.11340771730719028,0.7097,-0.5791,0.0478,0.2253,-1.4307,-0.3781,-0.08410333333333335,-0.11641,-0.20416999999999996,0.4876545417172604,0.510710645081929,1.845245929250026,0.8385,0.7361,2.3214,-0.8374,-1.6075,-3.2615,0
0.4327500000000001,-0.9782933333333333,-0.09237333333333335,0.11344975722227486,0.22007118587078756,0.09873017892156914,0.628,-0.6542,0.0645,0.2779,-1.4769,-0.2917,0.00546666666666667,0.08361333333333333,0.14017999999999997,0.39808312797908074,0.5450972312718437,1.9173517606503416,0.7714,1.3971,3.6658,-0.8147,-0.846,-2.9823,0
0.42173000000000005,-0.9842400000000003,-0.08047666666666667,0.12511622224542074,0.2500822011066458,0.11166594172006916,0.7692,-0.6079,0.1291,0.2722,-1.6411,-0.2944,-0.0618,0.10028666666666666,0.07247000000000003,0.42796875490205327,0.4633772275247303,1.8572944327054395,0.7106,1.0589,3.2727,-0.8355,-0.9025,-2.8444,0
0.41941,-0.9850433333333334,-0.08217999999999999,0.11203012633616259,0.21738883434723724,0.10333735646599108,0.6213,-0.5235,0.0721,0.2414,-1.2689,-0.2719,-0.08208666666666667,0.12577,-0.0036933333333333263,0.28207768767674174,0.5830903840448043,1.617460272695168,0.7066,1.3906,2.4918,-0.5856,-0.8782,-2.4761,0
0.40957666666666676,-0.9672333333333332,-0.10930666666666669,0.12735630897910638,0.19745994326800134,0.09846584891371653,0.6399,-0.6574,0.0292,0.094,-1.4842,-0.3137,-0.12299333333333333,0.016560000000000002,0.0035866666666666785,0.553490512601824,0.9807394833526876,1.864645833198457,0.8066,2.1568,3.3624,-1.1469,-2.1254,-2.7709,0
0.41626666666666673,-0.9736533333333333,-0.14011666666666667,0.12622062876739595,0.2034132819271343,0.12255615485137428,0.6174,-0.6795,0.0174,0.2218,-1.3315,-0.3576,-0.034096666666666664,0.011,-0.007886666666666672,0.5282895675951637,0.5412594890463894,1.872210545692524,0.728,1.0238,3.2911,-0.7662,-1.5259,-2.7899,0
0.42277333333333345,-0.97899,-0.11952666666666668,0.11840864930352452,0.19635914553308373,0.11533983351558257,0.6275,-0.6062,0.0544,0.2372,-1.3798,-0.331,-0.04916666666666667,0.02541333333333333,0.11928999999999998,0.6301298860816977,0.5913181474808885,1.8507982319566314,0.9067,0.9351,3.0892,-0.9482,-1.643,-3.1795,0
0.41213666666666665,-0.9470633333333336,-0.09951333333333333,0.0996132468802367,0.17367921377888193,0.11603998637013713,0.6022,-0.6785,0.0685,0.2759,-1.3006,-0.2881,-0.021540000000000004,0.05800666666666667,0.10303666666666668,0.583224653941787,0.5198008908812293,1.8586511277849032,0.9105,1.048,2.87,-0.9009,-1.0505,-2.9057,0
0.4110433333333333,-0.9673133333333332,-0.1169,0.10597428667738985,0.17918547265109244,0.10952686963669596,0.6054,-0.6879,0.0692,0.166,-1.32,-0.3205,-0.07554666666666666,0.007099999999999995,-0.017986666666666668,0.5352748786167355,0.6583028120962214,1.9745995560398177,0.7399,1.8434,3.277,-1.2274,-1.6203,-3.3419,0
0.40871999999999997,-0.9721500000000003,-0.14023666666666668,0.11293310623000954,0.21904654795822232,0.10538693069313453,0.5776,-0.6961,0.0287,0.1907,-1.3998,-0.328,-0.002389999999999992,-0.014353333333333334,0.07062333333333333,0.5577493556156342,0.4964940640915669,1.6656544129049953,0.8852,0.7675,2.9164,-0.9808,-1.1281,-2.571,0
0.39688000000000007,-0.96345,-0.14214,0.09670341933119442,0.21308752410930698,0.11356627899221639,0.5657,-0.6353,0.0286,0.2422,-1.3388,-0.3392,-0.06500000000000002,0.05401333333333335,-0.05064333333333335,0.6021066751630163,0.45682542106731905,1.5745046127730709,0.9446,1.3985,2.6488,-0.9472,-0.7884,-2.289,0
0.41475,-0.9516566666666667,-0.15580333333333335,0.1224977346729318,0.22066540544661625,0.10012788541051695,0.5881,-0.6652,0.0181,0.1768,-1.335,-0.3395,0.06179333333333334,0.005173333333333331,0.21939666666666663,0.575516138923071,0.5712836706644223,1.6393942078125066,0.9432,0.812,3.1364,-0.8211,-1.4786,-2.4544,0
0.4019333333333333,-0.9581266666666668,-0.14881000000000005,0.09611940969200877,0.22090159758610156,0.11520209932833331,0.6002,-0.6608,0.0291,0.2515,-1.4097,-0.3469,-0.0875433333333333,0.0020099999999999953,-0.09377999999999999,0.6905036860663847,0.5255612535907324,1.378872619307477,0.9882,0.9329,1.9923,-0.9669,-1.3891,-2.4883,0
0.47169666666666654,-0.9866233333333334,-0.23477999999999996,0.18397256445259538,0.260110713408512,0.20937981722713617,1.1853,-0.6299,0.0187,0.2668,-1.4048,-1.1531,-0.006843333333333335,0.019256666666666655,-0.10871999999999993,0.8875096913247777,0.8915941262640226,2.062666793991333,1.5536,2.3358,4.1962,-1.2529,-1.3859,-3.9627,0
0.43079666666666666,-0.97504,-0.16343,0.14482906329432862,0.22949473977894766,0.13369877659151921,0.6786,-0.621,0.0238,0.1792,-1.5389,-0.5094,-0.11222666666666668,0.05627333333333333,0.061296666666666666,1.126276620010204,1.1750686304045903,2.242466587685323,1.526,2.7621,4.2046,-1.7654,-2.003,-2.9367,0
0.38834666666666673,-0.9757666666666667,-0.1829233333333333,0.11923511324222012,0.18607297480833423,0.13206283949208666,0.6574,-0.6728,0.0163,0.1935,-1.2447,-0.3898,-0.11988666666666668,0.060879999999999976,-0.08125000000000003,1.0141135241264125,1.1162388254528133,1.4913528403132321,1.5269,2.6929,2.5025,-1.4243,-1.9038,-2.0126,0
0.4069033333333333,-0.9842100000000003,-0.17100666666666664,0.13012163138395932,0.2215387089240256,0.1372722211980402,0.6,-0.6617,0.0294,0.1217,-1.3612,-0.4604,-0.047393333333333364,0.17455666666666667,0.16099333333333332,1.1033020622856091,1.0673310977365003,2.004627655499994,1.579,2.8059,3.9958,-1.6403,-1.7022,-2.8286,0
0.43926333333333345,-0.9922833333333332,-0.22115999999999997,0.16791926114763553,0.25610669258827606,0.1652094357328673,0.7448,-0.6695,0.0362,0.1505,-1.6526,-0.4606,-0.08838666666666664,-0.04013666666666665,-0.014473333333333322,1.3273434468979717,1.551319381617341,1.9242347374428121,2.0898,2.3775,3.8349,-1.7439,-3.185,-2.8935,0
0.38885333333333333,-0.9854466666666667,-0.1783566666666667,0.14700786920840464,0.19193264934621587,0.15290686523757396,0.64,-0.6157,0.0454,0.152,-1.3941,-0.4632,-0.06699999999999999,0.033759999999999964,0.13873333333333332,1.2659930157240478,1.462438753825149,1.9076452594997724,2.4328,2.1081,4.2889,-1.7906,-3.1704,-2.3078,0
0.4002900000000001,-0.9750200000000001,-0.19347333333333327,0.14820457750387958,0.2011344144835865,0.13878972667270822,0.6549,-0.6971,0.0486,0.1289,-1.4665,-0.4568,-0.15662000000000006,0.08262666666666667,-0.07139666666666665,1.108870968955858,1.2749224235854193,1.7269446836344626,1.8856,3.2262,3.095,-1.8755,-2.9796,-2.5312,0
0.4133533333333334,-0.9631433333333336,-0.20508999999999997,0.14871437500569112,0.2222056451738489,0.15223408098646343,0.7073,-0.6483,0.0442,0.2039,-1.4129,-0.4982,-0.0014666666666666827,0.05202000000000002,0.05810666666666668,1.3723500519391805,1.293993318322034,2.025155401603462,2.4778,2.5462,3.4643,-1.7677,-2.2163,-2.7085,0
0.4234799999999999,-0.9760500000000001,-0.2149166666666667,0.16456989585185272,0.2652176344451659,0.14995214658139383,0.7393,-0.5181,0.0444,0.087,-1.4552,-0.491,-0.07091666666666668,-0.14843000000000003,-0.08044,1.2451943781465673,1.4408131533485073,1.840741583803883,2.254,2.0039,3.7159,-1.6126,-3.1764,-2.8875,0
0.38758999999999993,-0.9269633333333334,-0.17670666666666668,0.13577708239407812,0.24488324379580162,0.15223090205418177,0.7202,-0.57,0.0486,0.2051,-1.443,-0.4854,-0.10269666666666666,-0.00459333333333333,-0.09774333333333332,1.1806746655410942,1.2914196195455319,1.8296825054681185,1.7798,2.7595,3.5118,-1.6959,-2.2544,-2.7575,0
0.4210433333333333,-0.9856133333333333,-0.19029000000000004,0.1565095296940652,0.24224749773923265,0.14075612156713005,0.7112,-0.5679,0.0105,0.0246,-1.6086,-0.4526,0.03229666666666666,0.04475666666666665,0.14685999999999996,1.0406434125373933,1.2781826728988508,1.7161110064971583,1.4648,2.7969,2.9713,-1.5189,-2.2651,-2.5158,0
0.42766333333333345,-0.9622466666666666,-0.20781000000000002,0.16030052053894733,0.2222112426674584,0.13185926758584648,0.807,-0.6276,0.038,0.1729,-1.4024,-0.4339,-0.15181666666666663,0.013243333333333319,-0.07367333333333334,1.0111660469676726,1.188643282438031,1.795856124513883,1.9111,2.7154,3.3528,-2.2127,-2.2581,-2.5064,0
0.39887333333333325,-0.9507133333333334,-0.19641,0.1386192973910754,0.222748475335675,0.1336195792745855,0.6741,-0.5134,0.0189,0.078,-1.5315,-0.4623,0.044273333333333345,0.011273333333333324,0.13215333333333332,1.13118774591389,1.2961053450515758,1.694291853850153,2.2745,2.273,3.2041,-1.9186,-2.8976,-2.4547,0
0.4146933333333333,-0.9428366666666667,-0.21511333333333335,0.15716967096505727,0.19553140057084287,0.13961528355555794,0.6337,-0.6315,0.0112,0.1223,-1.2884,-0.4656,-0.07262666666666664,0.06552666666666668,0.015743333333333356,1.0710455948095392,1.3844319213242697,1.527658970266853,1.6751,3.0241,2.6706,-1.6956,-2.3242,-2.4651,0
0.3354533333333333,-0.9242766666666669,-0.2893166666666667,0.17009593790550678,0.29286298159464563,0.18368741079632397,0.5956,-0.271,0.011,-0.0808,-1.6418,-0.6588,-0.10857666666666667,-0.12486000000000003,-0.09450333333333334,1.7076540810337626,1.3817903824761004,1.404207700395698,3.2911,2.554,2.9187,-3.4753,-3.1794,-2.2797,0
0.3909066666666667,-0.9958199999999999,-0.2259966666666667,0.13526249048917194,0.22262899615960743,0.15472086207399288,0.6165,-0.6984,-0.0217,0.1353,-1.4854,-0.6383,0.003583333333333346,0.09703,0.007286666666666686,1.284985360196582,0.8752797705049354,1.5988473560949945,3.221,1.5134,2.9206,-2.1818,-1.6728,-2.2686,0
-0.05770000000000002,-0.9788999999999998,-0.2711133333333333,0.37708911047838456,0.20096976955717016,0.14241554964823605,0.603,-0.6548,-0.0129,-0.4922,-1.3447,-0.5725,0.07149000000000001,0.04594333333333335,-0.09904000000000002,1.2601242353503253,0.8729180672866167,1.6805500761193721,2.0026,1.4424,2.7176,-1.806,-2.1475,-2.8429,0
-0.26688666666666666,-1.00575,-0.2795599999999999,0.09918188354225033,0.2298898293111064,0.11975650468259794,0.0298,-0.7229,-0.0873,-0.4523,-1.3737,-0.4951,-0.037973333333333324,0.03453333333333337,0.06782666666666667,1.225618319372556,0.9039507872374063,1.5575636100218724,2.1045,1.6485,2.4578,-1.7498,-2.0765,-2.7732,0
-0.2703366666666667,-0.9677400000000002,-0.2897033333333333,0.11008839859743227,0.25581017692947566,0.12554205912440422,-0.0045,-0.6069,-0.0904,-0.4514,-1.4011,-0.4773,-0.06867000000000001,0.07644666666666664,0.16420666666666664,1.2940796295783559,1.110686988940763,1.5846987776281307,2.2452,2.1176,2.5976,-1.9097,-3.3015,-3.1352,0
-0.2834366666666667,-1.0338466666666668,-0.29016666666666674,0.07499131206384825,0.24063186181289506,0.13046466382031238,-0.0961,-0.7193,-0.0753,-0.4169,-1.4957,-0.5634,-0.025130000000000017,0.04112000000000001,0.013886666666666691,1.296501623640884,1.1134302847042339,1.498565697185682,2.3047,2.9167,2.1691,-2.3718,-2.4785,-2.5447,0
-0.26470333333333324,-0.9697399999999998,-0.29582,0.09957778620629767,0.18942893417703718,0.12257031310709952,-0.0363,-0.7028,-0.1026,-0.5092,-1.3831,-0.5073,-0.07765000000000001,0.10689666666666668,0.08786000000000002,1.2399690440379605,0.907991532120371,1.2873294494605008,2.1332,2.422,2.0549,-1.9816,-2.8552,-2.1923,0
-0.28825999999999996,-0.97517,-0.2798966666666666,0.09485031256197024,0.1797643383567152,0.12293426189279551,-0.1028,-0.7553,-0.0976,-0.5128,-1.2768,-0.5363,-0.017363333333333338,0.08173000000000001,-0.0032500000000000194,1.4380922828964895,0.9113842598316945,1.458140439939242,2.0944,2.0294,2.3581,-2.1339,-1.4774,-2.144,0
-0.2989033333333333,-0.9875233333333334,-0.27913000000000004,0.09241318193527531,0.27017643620079257,0.11171522648048567,-0.0609,-0.5172,-0.0849,-0.5084,-1.4615,-0.5015,-0.01577666666666667,0.05646333333333337,0.04193666666666667,0.9837822020960328,0.9204725074031583,1.1745407423779504,1.7804,1.7747,2.3599,-1.4752,-2.0199,-2.0094,0
-0.2724,-0.9859666666666667,-0.26522,0.13681716216202178,0.20487674231163938,0.1230916630696059,0.0823,-0.7161,-0.0668,-0.5584,-1.3845,-0.4887,-0.051953333333333365,0.042233333333333345,0.11021999999999998,1.191229765246485,1.2716892293685413,1.4433914505726457,2.112,2.2614,2.3299,-1.9327,-3.3968,-2.1416,0
-0.2896466666666667,-0.9451766666666669,-0.27537333333333336,0.11098368234621897,0.25605345708476085,0.12875896736989204,-0.0823,-0.6275,-0.0891,-0.4732,-1.5168,-0.5026,-0.08989,0.11365333333333333,0.053226666666666686,1.2393606367105527,1.2034626486570508,1.4709700618002541,1.9134,3.1001,2.3805,-1.952,-2.7427,-3.1696,0
-0.2775066666666666,-0.9622100000000002,-0.3133733333333332,0.11683762069297458,0.21626722351183328,0.12464408068807242,0.0278,-0.6047,-0.0912,-0.4743,-1.3524,-0.5095,0.05790333333333335,-0.0012966666666666571,-0.06462999999999999,1.2339851417211256,1.087953799565269,1.2964243920265384,2.1538,1.7496,2.1133,-1.8313,-3.2843,-2.1376,0
-0.2919066666666666,-0.9712333333333334,-0.28515333333333337,0.09853806522786294,0.20716012020246283,0.12419921353888745,0.0169,-0.6662,-0.0943,-0.4467,-1.3206,-0.5557,-0.0820833333333333,0.034453333333333315,0.04776333333333335,1.2744526476460214,0.9841507498532842,1.3193208491841375,2.0742,1.3531,1.9776,-2.0343,-2.6485,-2.1443,0
-0.2880033333333334,-0.9790066666666666,-0.29785000000000006,0.10509769669490722,0.20273952872034381,0.12143700154741795,-0.0665,-0.698,-0.1063,-0.4603,-1.3837,-0.5231,-0.04379333333333331,0.05098666666666664,0.016593333333333325,1.217767765905372,0.8745413646230701,1.3904505059904848,2.112,1.7387,2.1449,-1.885,-1.5543,-2.1158,0
-0.30493,-1.0041900000000001,-0.2939466666666667,0.12765512307884813,0.20538880094037293,0.1267691214804281,0.0035,-0.7425,-0.1036,-0.6554,-1.3186,-0.544,-0.061283333333333335,-0.12723333333333334,-0.027066666666666676,1.4285236739214449,1.4164569870250046,1.5859558478294304,2.4319,2.4519,2.4562,-2.1184,-4.1364,-3.3763,0
-0.2946966666666667,-0.9660033333333333,-0.28776999999999997,0.19682934755130208,0.2540829737993332,0.14875150801901485,0.5596,0.0111,-0.024,-0.6088,-1.2967,-0.5632,-0.05757000000000001,0.09368333333333335,0.09116000000000003,1.2796144597575825,0.9422786827258379,1.5624726803901299,2.0317,2.275,2.7242,-2.2306,-2.3093,-2.7785,0
-0.29109,-1.0061166666666665,-0.2727133333333334,0.10504237355172108,0.20493224798544477,0.13123981401087553,-0.0193,-0.7656,-0.0856,-0.4185,-1.469,-0.5502,0.0074733333333333206,-0.03663000000000002,-0.03260666666666665,1.29572727253138,0.8853170665808439,1.4643700288292345,2.0515,1.4773,2.386,-1.7923,-2.1105,-2.5539,0
-0.3074666666666667,-0.9799533333333333,-0.27363000000000004,0.10580875830163272,0.20899371832390218,0.13273052074760738,-0.1162,-0.6981,-0.0867,-0.4944,-1.419,-0.5507,-0.13743999999999998,0.03904333333333332,0.04853666666666666,1.4081590414193401,1.0575541961113122,1.5934737727591453,2.2927,1.7101,2.5075,-2.2682,-2.7834,-2.7353,0
-0.27671666666666667,-0.9995766666666664,-0.28704999999999997,0.08505767651031465,0.23509881515026285,0.13666770107542375,-0.0952,-0.6407,-0.04,-0.5007,-1.5374,-0.5206,0.07695666666666663,0.05251666666666666,-0.10843666666666668,1.3496330289693779,0.9258812559164762,1.396888502815758,2.0887,1.6371,2.088,-2.2442,-2.423,-2.017,0
-0.29944333333333334,-0.9959166666666667,-0.27239333333333327,0.10315105991176018,0.23779157359179984,0.12906668934644047,-0.1059,-0.6511,-0.0969,-0.487,-1.4156,-0.5052,-0.08515333333333334,0.07047333333333333,0.03078,1.5258691451405506,0.8232472092514068,1.7585668519250712,2.582,1.7816,2.2948,-2.2437,-1.6224,-2.8446,0
-0.31483666666666665,-0.9943899999999999,-0.29636333333333337,0.07887490524977459,0.20331903984997876,0.13477833777478238,-0.1699,-0.7306,-0.0885,-0.428,-1.3505,-0.523,-0.1433366666666666,-0.041843333333333343,0.10615999999999999,1.3099399468949957,0.775932600025034,1.4439706555906515,1.9835,1.3475,1.9764,-2.2249,-1.8944,-2.1998,0
-0.29742333333333343,-1.0245866666666668,-0.29844666666666664,0.11217367594365733,0.22738582695245224,0.14270106863126758,-0.063,-0.6867,-0.0859,-0.5385,-1.4843,-0.5992,0.022096666666666667,-0.05240000000000002,-0.002913333333333316,1.4928167579268148,1.4015162464151163,1.6200702772609488,2.4688,2.215,2.4337,-2.4626,-2.7057,-2.9202,0
-0.28753666666666666,-0.9920699999999999,-0.2527466666666666,0.07696404213403292,0.20481606575926473,0.14104344093181032,-0.0741,-0.6589,0.0847,-0.3906,-1.4095,-0.5711,-0.04205000000000001,0.08932666666666665,0.055633333333333305,1.270552490671568,1.0451166445156628,1.5670553312708417,1.9676,1.4933,2.4306,-2.412,-2.2099,-2.556,0
-0.28581333333333336,-0.9946399999999999,-0.26829000000000003,0.10486290469755831,0.2311653440199505,0.13247503694580764,-0.0858,-0.5777,-0.0331,-0.5654,-1.3889,-0.4913,-0.043736666666666674,-0.03244000000000001,0.02729333333333333,1.266094827979635,1.0289069847038719,1.435587481314095,2.3143,1.7679,2.6794,-2.1558,-2.9974,-2.7166,0
-0.32115000000000005,-0.9543833333333331,-0.31272666666666665,0.1627580174411673,0.28157444300579376,0.1384003262237867,-0.0607,-0.5602,-0.0592,-0.6258,-1.5278,-0.5405,0.010966666666666628,0.06880333333333333,-0.0563666666666667,1.2918372867363361,1.4562362202949253,1.6043852105021914,2.6363,3.1694,2.4231,-2.1861,-3.2346,-2.697,0
-0.2810233333333333,-0.9868166666666667,-0.26782999999999996,0.10636178884560368,0.27865232457043265,0.1373025733741812,-0.0701,-0.5609,-0.0318,-0.4546,-1.4946,-0.5403,-0.011623333333333319,-0.09061333333333334,0.03513666666666664,1.269462093982121,0.9265360989053328,1.5442130482107603,2.1522,1.0651,2.3404,-2.4059,-3.1755,-2.5979,0
-0.2621066666666666,-0.9891333333333334,-0.2779466666666667,0.10803740391030395,0.2591954386217066,0.13216084696786856,-0.0333,-0.5827,-0.0434,-0.4842,-1.4558,-0.4684,-0.11793666666666666,-0.04772666666666665,0.10313333333333331,1.1731923605343209,0.9790494003010701,1.513409430513705,2.2347,1.4859,2.1452,-1.9663,-2.8347,-2.589,0
-0.3533833333333334,-0.9821233333333336,-0.30025999999999997,0.1464462925757952,0.30450395352547344,0.13692485882964148,-0.0436,-0.5922,-0.0566,-0.5955,-1.4444,-0.5116,0.007893333333333344,0.22155000000000002,-0.049863333333333336,1.3772710708907827,1.5045593633215741,1.644264490739172,2.6668,3.5076,2.7147,-2.2341,-3.107,-2.7732,0
-0.30594333333333334,-0.9733333333333334,-0.3207966666666667,0.1830795355394298,0.3412398219609693,0.142298957960983,0.3695,-0.5085,-0.099,-0.545,-1.6369,-0.5416,-0.031066666666666656,0.00984333333333335,0.04774666666666667,1.5184871571524015,1.4275925965942016,1.6396325292121328,3.5145,2.9644,2.6564,-2.3955,-4.7066,-2.7288,0
-0.26943666666666666,-0.9550000000000002,-0.3200066666666668,0.13998191874207414,0.3141941405103451,0.1292924696671994,0.1456,-0.4667,-0.0755,-0.5,-1.5465,-0.5529,-0.03805999999999998,-0.11627333333333333,-0.021363333333333352,1.1235042395451216,1.0119516149443637,1.2311781832675655,2.3912,2.027,2.018,-1.8412,-2.9652,-2.5135,0
-0.29892,-0.9655566666666667,-0.3149333333333334,0.13457853084915603,0.2665127514363261,0.1437679795852435,0.0017,-0.5436,-0.0533,-0.5328,-1.4214,-0.5917,-0.016020000000000013,-0.017023333333333317,-0.039440000000000044,1.3335702118490178,1.3851691510508704,1.8034761818069092,2.3211,2.3815,2.5079,-2.0712,-2.8951,-3.046,0
-0.32095,-0.9866466666666668,-0.29025,0.1205229202697347,0.23234842257106966,0.14653089529468544,-0.0477,-0.6977,-0.0827,-0.524,-1.4862,-0.5802,0.012846666666666673,0.025906666666666658,-0.050746666666666634,1.3872867972222351,1.1824887731284015,1.621987441325022,2.5772,2.9181,2.1358,-1.942,-2.6171,-2.7882,0
-0.30751999999999996,-0.9841133333333332,-0.28881,0.11922924427192841,0.23442041916083214,0.13849934731577818,-0.0089,-0.6867,-0.0689,-0.5229,-1.4764,-0.5584,-0.07583666666666669,0.04674666666666667,0.06606000000000001,1.2693051385762573,1.2549322481322642,1.465444145831469,2.0694,2.4986,2.6044,-1.8521,-2.849,-2.3177,0
-0.2798266666666666,-0.9885533333333333,-0.28498,0.16443290201285088,0.2261424066643716,0.14108975475402785,0.1031,-0.682,-0.0798,-0.5186,-1.453,-0.5649,-0.020050000000000016,0.13253333333333334,-0.02364333333333331,1.4396612790681966,1.6606471356659134,1.525767689345457,3.0875,3.1859,2.5457,-2.2599,-4.5717,-3.1506,0
-0.2938966666666667,-0.9945566666666668,-0.28061,0.14335203950375125,0.2675002941452889,0.13383978674983527,0.0509,-0.5394,-0.0898,-0.4666,-1.5163,-0.5191,-0.04839000000000004,0.040846666666666656,0.02713666666666669,1.1740304687786811,1.4015885324512507,1.5512293186224992,2.0433,1.9511,2.4062,-1.7993,-3.7206,-2.7448,0
-0.30206,-0.96992,-0.2603433333333333,0.12397954113759921,0.30525835118063066,0.11866552438750237,-0.006,-0.5539,-0.0873,-0.5436,-1.4232,-0.4765,-0.1489233333333333,-0.03742333333333333,0.15282333333333334,1.1133924972286537,1.1392808262939034,1.376813846552057,1.9038,2.033,2.4024,-1.7364,-2.7009,-2.6672,0
-0.29338999999999993,-0.9903833333333335,-0.28550333333333333,0.14855170549979071,0.26170251614003065,0.11882457798508411,0.1203,-0.5951,-0.0817,-0.5399,-1.3838,-0.5219,-0.038066666666666665,-0.05718333333333332,-0.12997666666666668,1.2351541004886892,1.4038426535475903,1.3570730312681782,2.0587,2.2238,1.9154,-1.8979,-4.2315,-2.4968,0
-0.29866666666666664,-0.9643099999999999,-0.26532333333333336,0.12577306419961679,0.2527081734551427,0.10829229820524963,-0.0496,-0.6141,-0.0955,-0.5878,-1.4102,-0.4917,-0.051176666666666676,-0.05119000000000003,-0.05487333333333334,1.0562369015497435,1.334937697977984,1.4843574836488571,1.9643,2.6861,2.1586,-1.6772,-3.6729,-2.6723,0
-0.3359366666666666,-0.9688866666666666,-0.28353000000000006,0.12283312055690487,0.2687543715549295,0.11639550634174725,-0.0785,-0.519,-0.1063,-0.5314,-1.533,-0.5239,-0.03022,0.14831000000000008,0.021566666666666682,1.0417037646947958,1.3634739622591334,1.493637801576691,1.9788,2.8803,2.4603,-1.5666,-3.1402,-3.0433,0
-0.2506366666666666,-0.9595199999999998,-0.26794000000000007,0.12775770840724746,0.2435016907114001,0.12677575260386295,0.0135,-0.5773,-0.0145,-0.5024,-1.4664,-0.5265,-0.00528666666666668,0.24325,0.10980999999999998,1.0275830734882414,1.0868021539804529,1.029292632010132,1.4125,2.1061,1.8153,-2.1594,-1.9424,-1.5436,0
-0.2975433333333333,-1.01199,-0.2833899999999999,0.1490063032300944,0.24031497054691683,0.11174215809868594,0.1384,-0.6411,-0.1077,-0.5539,-1.4275,-0.4638,-0.13093666666666667,-0.03202666666666666,-0.02080000000000002,1.0955670336227352,1.3113049478137873,1.4730268267800806,2.1688,1.836,2.2868,-1.7066,-3.1924,-3.0485,0
-0.30571333333333334,-0.9803066666666668,-0.26243333333333324,0.11793084687085971,0.2758255882372714,0.10675850392788173,-0.1036,-0.611,-0.1001,-0.5273,-1.5757,-0.4655,-0.059743333333333336,-0.004436666666666667,-0.06366000000000001,1.076368399209161,1.3109100272877916,1.5218387740516064,1.9517,1.781,2.1037,-1.4808,-3.8419,-2.7721,0
-0.2653366666666666,-0.9751466666666666,-0.25996666666666673,0.15402757362492475,0.25791969711698937,0.10307954856970093,0.1714,-0.6506,-0.0696,-0.5317,-1.4614,-0.4754,-0.0036966666666666628,-0.039303333333333336,-0.051800000000000006,1.133402359843516,1.5000192144708042,1.5992049078343213,2.424,2.6448,2.4232,-1.6958,-3.2872,-3.5065,0
-0.30376333333333333,-0.9360366666666667,-0.2890766666666666,0.11949606394710485,0.24358459619965117,0.10087507358740497,-0.0805,-0.6027,-0.1408,-0.5216,-1.3525,-0.4644,0.009573333333333333,0.019976666666666656,-0.026100000000000005,0.8455635977766884,1.0094212991075402,1.1675243466412166,1.6711,2.777,2.3468,-1.5341,-2.1903,-2.0372,0
-0.27627333333333326,-0.9624633333333334,-0.27498666666666666,0.08359210049022464,0.22830843699324568,0.10828388211750066,-0.1196,-0.5689,-0.116,-0.4145,-1.4159,-0.4471,-0.04916333333333332,-0.0031200000000000043,0.03230000000000001,0.8666449698588281,1.0221479845623271,1.1412500786720523,1.8893,1.7017,1.5228,-1.6723,-2.5205,-2.6895,0
-0.30427,-0.93892,-0.2659766666666667,0.08654504169147596,0.20712377009394897,0.10163629437033472,-0.1594,-0.6426,-0.1136,-0.4888,-1.2987,-0.4372,-0.06909333333333333,0.010700000000000017,0.04897666666666667,0.8758251352525971,0.8246176982552959,1.1176846790801844,1.7138,1.1588,1.7506,-1.5241,-2.5657,-1.9768,0
-0.29179,-0.9937900000000002,-0.29161333333333334,0.11096972047396068,0.2508699324351167,0.10880362485509935,0.0144,-0.6243,-0.0704,-0.4852,-1.3347,-0.5051,-0.052716666666666655,0.019743333333333342,-0.08201666666666668,0.9281951285205043,1.1371419393050441,1.129398648986855,1.7293,2.2071,1.7637,-1.544,-2.6258,-2.4628,0
-0.33239,-0.9650499999999999,-0.28212,0.13423911077651315,0.2969959999150111,0.12589450537159524,0.0067,-0.6064,-0.0641,-0.5784,-1.5353,-0.499,0.030233333333333366,0.024053333333333326,-0.04152333333333334,1.1765592100326459,1.4799064673924107,1.6477428613175629,2.1735,1.7668,2.2454,-1.8426,-3.9892,-2.818,0
-0.25201,-0.9522099999999999,-0.2600466666666666,0.18903010588537073,0.3119108685130285,0.159599368535034,0.6021,0.0132,-0.0272,-0.5022,-1.5013,-0.7509,-0.041663333333333344,0.023620000000000013,0.07312,1.0429488103559967,1.0220301640059022,1.2989244042137587,2.0667,1.5397,2.0555,-1.7438,-2.5885,-3.0075,0
-0.26679,-0.9746333333333335,-0.2566233333333333,0.07037445338796723,0.23658879113760659,0.11147400093769609,-0.1232,-0.6198,-0.0829,-0.4042,-1.55,-0.4463,0.07415,0.004360000000000003,-0.11907333333333332,1.0932825046619927,1.1236950790844555,1.0285898854100288,1.6264,2.1889,1.5509,-2.3923,-3.1339,-2.3744,0
-0.25793000000000005,-0.9660333333333335,-0.2508466666666666,0.0866681946593861,0.23162237598615396,0.09796614029182818,-0.0832,-0.6107,-0.1083,-0.4602,-1.449,-0.4128,-0.10042333333333332,-0.016603333333333338,0.10317333333333334,0.8806233895737542,0.8493906138026791,1.090389841685337,1.6555,0.9568,1.7752,-1.5428,-2.5724,-2.1762,0
-0.24620333333333336,-0.9585233333333335,-0.23462,0.0931125588156367,0.25638413889739925,0.1027714518256156,0.0302,-0.6039,-0.1019,-0.4328,-1.4194,-0.4318,0.02750333333333334,-0.06934,-0.08299999999999996,0.8282490844248334,0.9922587477481661,1.0282285724688744,1.4835,1.7717,1.9244,-1.4916,-2.0926,-1.5243,0
-0.2586366666666666,-0.9646666666666666,-0.22985333333333327,0.12273911352338238,0.2551722668064193,0.11106958593395508,0.0604,-0.608,-0.0253,-0.468,-1.51,-0.4864,0.02685666666666668,0.16083,0.04031666666666669,0.9389985834822164,1.2219202299574674,1.1532878128931285,1.7091,1.9004,2.2776,-1.4771,-3.1752,-2.1275,0
-0.27769,-0.9898566666666667,-0.23316999999999988,0.07702617266788003,0.19278456563513177,0.10971539404137949,-0.1414,-0.7078,-0.0642,-0.4436,-1.3659,-0.4337,-0.08515333333333333,0.13415333333333335,0.09706,1.0890530336769277,1.0192262091083282,1.1333889856653745,2.0895,1.8504,1.7701,-1.9393,-2.9352,-2.2194,0
-0.24507000000000007,-0.9602900000000003,-0.22662666666666664,0.11919111037784424,0.25304835213302884,0.1217372323782927,0.0649,-0.6186,-0.0225,-0.4382,-1.5211,-0.4964,0.003483333333333316,-0.02421,-0.012026666666666663,1.0148108035264618,1.5492850721297673,1.0642545086887665,1.9501,2.0535,1.6753,-1.7672,-3.9975,-1.7019,0
-0.2649466666666667,-0.98841,-0.23167333333333331,0.0759545042288058,0.24815507436084092,0.12232442994316198,-0.0396,-0.51,-0.0298,-0.4391,-1.4715,-0.525,-0.061356666666666684,-0.013713333333333345,0.03835999999999999,0.8616798588176203,1.080334301942701,1.0670696459834805,1.1898,1.2345,1.9563,-1.5541,-2.801,-1.8243,0
-0.2809633333333334,-0.9805799999999999,-0.2524866666666667,0.1319244754770132,0.2667594608088614,0.12304032905804765,0.0567,-0.6371,-0.0426,-0.4802,-1.4675,-0.525,0.022623333333333332,0.03352999999999998,-0.058599999999999985,1.106586336031651,1.2481432082815298,1.2068635588396779,2.2686,2.4427,1.9654,-2.0188,-2.895,-2.261,0
-0.3285566666666666,-0.9944366666666665,-0.2691433333333333,0.1471067843048231,0.25699230027823566,0.1278955923409008,0.0462,-0.6027,-0.0538,-0.6133,-1.3975,-0.5208,-0.10782666666666667,0.11209333333333334,0.14642666666666668,1.2472402439630144,1.6538244823967,1.6281936129752304,2.4647,2.3719,2.6677,-2.0157,-4.0356,-3.2916,0
-0.34327666666666656,-0.9574499999999999,-0.26626333333333335,0.15469133155245404,0.27419933191145757,0.11899261780444208,-0.0388,-0.5776,-0.0895,-0.6394,-1.5421,-0.5052,-0.036069999999999984,-0.10484999999999993,-0.016920000000000015,1.0589217232475294,1.8776842797207265,1.5017138536375352,2.145,2.8786,2.4328,-2.0944,-6.4929,-2.7299,0
-0.29875,-0.9997666666666667,-0.22647666666666666,0.14252641557946735,0.3030532232000743,0.12744343351905751,0.0238,-0.63,-0.0418,-0.5765,-1.4973,-0.5025,-0.09817999999999998,-0.020313333333333346,0.030566666666666648,1.1756385397467757,1.2033625058583748,1.5213595891636629,2.1669,2.4643,2.1269,-2.2827,-2.81,-3.4371,0
-0.3088999999999999,-0.97941,-0.2578533333333333,0.14460740430320412,0.23799739834857367,0.1365157404928049,0.0486,-0.67,-0.0629,-0.5766,-1.5249,-0.5037,-0.13382333333333335,0.18037333333333339,0.09305000000000001,1.409595236763287,1.7595402289221473,1.3195956438530183,2.3821,3.6795,2.0555,-2.2226,-4.1107,-2.2669,0
-0.2614833333333333,-0.9698199999999999,-0.19548333333333334,0.13346609044566557,0.2595877625828279,0.10753392755178544,0.1102,-0.4829,-0.0065,-0.6358,-1.5059,-0.3851,9.333333333332306e-05,0.011086666666666668,-0.007399999999999985,1.0428436120839826,1.2246426785642086,1.1853034696534106,2.3852,2.9424,2.4132,-1.7162,-3.2245,-2.2089,0
-0.31204000000000004,-0.97099,-0.26347666666666664,0.15813351539017645,0.26044781375480036,0.14742026642908695,-0.0227,-0.6296,-0.0645,-0.7353,-1.549,-0.7151,-0.03276,0.08493,0.025523333333333335,1.0444820642226262,1.1674012562983203,1.210655330284853,2.0439,2.044,1.802,-1.7427,-2.3925,-3.158,0
-0.32704000000000005,-0.9964366666666667,-0.2754466666666666,0.13856986436575894,0.2808283786663445,0.13880249111680196,-0.0212,-0.3813,0.0214,-0.6747,-1.6032,-0.5083,0.010470000000000024,0.23540000000000008,-0.05090666666666663,1.268101745115713,1.629128170906568,1.3749939335122183,2.6623,4.4299,2.0062,-2.0527,-3.6215,-2.7431,0
-0.2618233333333333,-0.96531,-0.26393333333333335,0.1569631335659765,0.24053704331536246,0.12035897838616329,0.2287,-0.579,-0.0903,-0.5218,-1.4353,-0.4782,-0.05853333333333334,-0.08391666666666664,0.02749666666666665,1.138585704475856,1.7306288582145677,1.2859807596252895,1.8491,2.8186,1.8946,-1.873,-4.0234,-2.6241,0
-0.2813566666666666,-0.9730500000000002,-0.24257333333333334,0.1459796293850697,0.24829524520840796,0.126664737855853,0.0422,-0.6759,-0.0481,-0.6046,-1.4211,-0.4898,-0.15629666666666667,0.06393333333333334,0.16186666666666663,1.2391371924499093,1.354615860380869,1.422451110688466,2.2621,2.5942,2.3045,-2.1682,-3.0959,-2.57,0
-0.3005233333333333,-0.9850666666666665,-0.2576866666666667,0.10917239035622493,0.26463378512556757,0.10227869880813431,-0.0885,-0.5855,-0.09,-0.4908,-1.4547,-0.4565,-0.10123999999999998,0.1585766666666667,0.07439,1.1321616865764907,1.1614198779446894,1.543686058254163,2.2003,2.0666,2.5744,-2.1164,-2.1811,-2.398,0
-0.2889366666666666,-0.9652833333333336,-0.27842666666666666,0.1298503475048351,0.22910826996818798,0.12395923950021338,0.0113,-0.61,-0.0846,-0.5466,-1.3645,-0.5225,0.0749666666666667,0.0030766666666666906,-0.14185333333333336,1.3962512676086816,1.2086792035205156,1.6579473053756262,2.5121,2.0026,2.4904,-2.1338,-3.5957,-2.4078,0
-0.29572333333333334,-1.0009933333333334,-0.27426999999999996,0.10827364974861177,0.22514552371871557,0.12421057245800304,-0.1387,-0.5859,-0.1012,-0.5039,-1.4473,-0.5208,-0.049553333333333296,0.15286666666666668,0.043003333333333324,1.2287557167884224,0.9975428644608619,1.6593832835462223,2.0647,1.9858,2.6952,-1.9881,-2.1616,-2.3678,0
-0.3228366666666667,-0.9924833333333335,-0.29975000000000007,0.11915994896265107,0.25609924003621415,0.1342810350694034,-0.1135,-0.6201,-0.0974,-0.5157,-1.5819,-0.52,-0.07221333333333338,-0.0435133333333333,0.02172333333333333,1.2165562165769217,1.1905644809351437,1.5630131975270327,2.0829,1.5406,2.3806,-1.8971,-3.0808,-2.5806,0
-0.32892,-0.9590933333333335,-0.2916100000000001,0.15439076129229298,0.19839991819612698,0.12273627839592806,-0.0102,-0.6731,-0.1012,-0.5794,-1.3545,-0.5177,-0.018386666666666662,-0.07664000000000003,-0.11687,1.1620001296021454,1.373933601417277,1.6379312059045281,2.1955,1.7512,2.3868,-1.5736,-3.6109,-2.6455,0
-0.3214033333333333,-0.9769566666666669,-0.2697533333333333,0.1317862074394144,0.23223004005887593,0.12812946236692316,-0.064,-0.6921,-0.1074,-0.5871,-1.3855,-0.5693,-0.1443900000000001,0.0034000000000000102,0.1402866666666667,1.1907714211731648,1.1796243899561039,1.7489773500107355,2.2233,1.743,2.5794,-1.7447,-3.0346,-3.1377,0
-0.3274100000000001,-1.0024133333333334,-0.27597666666666676,0.11743511590778913,0.22305714241334929,0.12912236293220242,-0.0684,-0.7114,-0.0957,-0.552,-1.4192,-0.5339,0.00605999999999998,0.08007000000000003,-0.0679,1.2314659972905295,1.234807334168874,1.7491305290304118,1.9398,1.7863,2.8588,-1.7049,-3.2468,-2.7031,0
-0.3153499999999999,-0.99487,-0.27217,0.12213405227101051,0.22190574288228307,0.13437459260563744,0.016,-0.7425,-0.0905,-0.5408,-1.4942,-0.5265,-0.14004333333333335,0.12116999999999997,0.10016000000000001,1.0975571444343344,1.013164040280369,1.5089985040553815,1.783,1.9091,2.5132,-1.7914,-2.2591,-2.1289,0
-0.3225233333333334,-1.0147033333333333,-0.29423333333333324,0.1506372365087348,0.22225885418666186,0.13195820219462215,0.0474,-0.6917,-0.0945,-0.601,-1.3544,-0.5179,-0.07853,0.025013333333333346,0.05969999999999997,1.1704319209090115,1.1241528858881138,1.8066688235343618,2.1386,1.3919,2.4876,-1.871,-3.144,-2.838,0
-0.29517666666666664,-0.9680866666666668,-0.24654999999999996,0.1011636594262275,0.24103615801631165,0.1252307903914567,-0.0682,-0.5595,-0.0544,-0.4823,-1.3763,-0.5112,0.040653333333333326,0.07360000000000001,-0.029656666666666644,1.1531275820592215,0.7450463771725429,1.5163735291087117,1.9507,1.3719,2.4951,-1.839,-1.5954,-2.9549,0
-0.26931,-0.9959766666666667,-0.27410000000000007,0.11503042880787735,0.24146553360581344,0.13092575153037353,-0.0427,-0.7345,-0.0812,-0.6075,-1.4328,-0.5348,-0.06000999999999999,0.05134999999999999,0.07288666666666667,1.2081838226060209,1.0473456619901833,1.3593093991342489,2.3199,2.8414,2.1522,-1.8222,-2.3264,-2.1275,0
-0.28402333333333335,-0.9734000000000002,-0.25631333333333334,0.0952078513255235,0.202238495261207,0.12634681807145604,-0.0408,-0.7496,-0.06,-0.4757,-1.2899,-0.4914,0.0066933333333333515,0.08312333333333335,0.021053333333333347,1.26354833482411,1.0150081755007363,1.4654868158404901,2.04,1.762,2.1678,-2.0318,-2.1704,-2.2961,0
-0.26208000000000004,-0.97232,-0.2552333333333333,0.11504806611691211,0.23247726533265936,0.11286708794077166,0.0967,-0.645,-0.0742,-0.4127,-1.3561,-0.4394,0.07548333333333333,0.08883,-0.05845000000000001,0.9815710314147641,1.2987475957031942,1.1181746285028946,1.6027,2.4009,1.8108,-1.538,-3.243,-2.1722,0
-0.27685666666666664,-1.017213333333333,-0.27641666666666664,0.11888733781170314,0.28309359818500546,0.12254734224761475,-0.01,-0.6469,-0.078,-0.507,-1.5789,-0.4814,-0.11107333333333334,-0.12503666666666668,0.04933666666666669,1.196987184540429,1.271277901869457,1.4024482749041438,2.2023,1.9709,2.5536,-2.2407,-3.4275,-2.767,0
-0.26848333333333335,-0.9674933333333332,-0.2659066666666667,0.10702454144384066,0.23257099314096483,0.11878960808297057,0.0126,-0.5802,-0.0914,-0.4496,-1.3243,-0.4424,-0.037329999999999995,-0.06402666666666666,0.014096666666666648,1.073701922981324,0.9618440571625166,1.3044122009504915,1.6345,1.1154,2.0443,-1.72,-2.7268,-2.3351,0
-0.23489666666666667,-0.9930666666666667,-0.2570133333333333,0.11864731708123327,0.23323264297076093,0.12853836870711038,0.0488,-0.5735,-0.0176,-0.4494,-1.4749,-0.5276,-0.09759333333333335,-0.08182666666666669,0.04571000000000001,0.9095194949412361,0.7258770618496911,1.0687774073436789,1.4879,1.2865,2.2782,-2.1359,-1.5439,-1.6007,0
-0.2761766666666667,-0.96693,-0.2726133333333333,0.11472341757561916,0.22482347887881377,0.12044539106950111,0.0536,-0.6718,-0.0827,-0.4803,-1.398,-0.4833,0.11977333333333333,-0.029563333333333313,-0.10124333333333334,1.1822979156428102,1.3796898720697903,1.3948377494776287,2.3119,2.2669,1.9335,-1.888,-4.1391,-2.7697,0
-0.27182333333333325,-0.9650266666666667,-0.27304,0.11068756489772691,0.25624300687962714,0.11751270980416222,0.0141,-0.4622,-0.049,-0.5626,-1.4073,-0.4635,-0.11006666666666667,0.0076833333333333345,0.08873666666666664,1.130829640004472,1.1456556839925194,1.3872869547487616,1.9406,1.7749,2.5292,-2.6442,-3.1587,-2.6388,0
-0.27454999999999996,-0.9991133333333333,-0.29621,0.09702472400870572,0.27419269807593516,0.12534732807352703,-0.1132,-0.5397,-0.055,-0.4467,-1.4556,-0.5095,-0.12780333333333335,-0.03995000000000001,0.016259999999999993,1.1464463033828622,0.9691511713510098,1.3974500624228106,1.8615,1.3907,2.1153,-1.7801,-1.9728,-2.8781,0
-0.26854333333333336,-0.9681733333333333,-0.2677633333333333,0.09446376310644142,0.19472533783614882,0.14022638465717852,-0.0659,-0.6225,-0.0517,-0.4394,-1.4319,-0.5472,-0.03639333333333332,0.08347000000000002,0.07934333333333334,1.4074551232959271,0.9506753581823674,1.2604331818817314,2.1257,2.0221,1.8409,-1.9403,-2.317,-1.7049,0
-0.25337000000000004,-1.0037199999999997,-0.20194333333333334,0.08194407323248605,0.24779944393358336,0.10954575074254194,-0.0885,-0.6202,0.0162,-0.4221,-1.5105,-0.4695,0.005266666666666675,0.02348999999999996,0.01844666666666666,0.7276773438699389,0.6311065347248543,0.9300307416992983,1.4574,1.1645,1.722,-1.505,-1.2104,-1.9269,0
-0.2730333333333333,-0.9953500000000001,-0.2207166666666667,0.08354684968300136,0.24943360079768034,0.12569766980895988,-0.089,-0.5089,0.0398,-0.4507,-1.3765,-0.4693,0.12046333333333334,0.2972766666666667,0.032986666666666685,1.0627645171692661,0.8423855455596423,1.1868451936159137,1.778,1.8857,2.1625,-2.0018,-1.4733,-2.0474,0
-0.28584000000000004,-1.00822,-0.26776,0.11024952138452684,0.2642347877068475,0.13919659280411956,-0.0155,-0.6222,-0.0872,-0.4615,-1.5666,-0.5331,-0.16223000000000007,-0.13839666666666667,0.08785333333333332,1.3788575051156637,1.181333608603468,1.4058475648796924,2.645,2.1049,2.0337,-2.0289,-3.4219,-2.5151,0
-0.16765000000000005,-1.0056366666666667,-0.17615333333333333,0.22132832804027475,0.19893020866509994,0.20880201930146133,0.2573,-0.6479,0.3118,-0.5704,-1.4379,-0.5945,-0.01941,-0.05809333333333334,-0.18457333333333328,1.0589525531847739,0.6776214694179132,0.9251909059041902,1.8086,1.6286,1.5784,-2.1461,-1.4234,-2.2834,0
-0.30163333333333336,-0.9969600000000001,-0.26830999999999994,0.0825246058743248,0.2098937491471208,0.12944021213379317,-0.1518,-0.6174,-0.0744,-0.4394,-1.3243,-0.5474,-0.0011399999999999928,-0.0009133333333333289,-0.10341666666666664,1.0752599998653092,1.1377170961405896,1.4500470789225965,2.0805,2.0665,2.5796,-1.9123,-2.5081,-2.0826,0
-0.2662033333333333,-0.9598366666666666,-0.2558533333333333,0.1539395033062044,0.23148974578218118,0.11710887575930866,0.172,-0.6605,-0.072,-0.5931,-1.4579,-0.5759,-0.047659999999999994,-0.026706666666666688,0.03194666666666665,1.2257307100326895,1.5404202912670057,1.3914077259437982,1.876,2.6683,2.0766,-2.011,-3.7504,-2.4382,0
-0.29604333333333327,-1.0114733333333334,-0.2802433333333333,0.15339377922766986,0.250528430396196,0.14386762997291289,0.0229,-0.6303,-0.0797,-0.5968,-1.4138,-0.5536,-0.09945333333333337,0.12437333333333331,0.0077100000000000024,1.5348629481068543,1.6121224805726817,1.6807720170638336,2.7319,2.83,2.5283,-2.3024,-4.5494,-3.1211,0
-0.3132566666666667,-1.00381,-0.29202999999999996,0.1039068139657152,0.22013493409019966,0.13083757540527505,-0.1505,-0.6808,-0.0901,-0.5729,-1.3567,-0.5583,-0.023750000000000028,-0.006446666666666667,-0.028633333333333375,1.2845882412208043,1.2257886398034794,1.4659875102571251,2.2258,2.1779,2.4935,-1.9248,-3.1175,-2.2685,0
-0.32982999999999996,-0.98928,-0.28002999999999995,0.15487013948288508,0.26269909152803544,0.13641935131715408,-0.094,-0.5707,-0.0646,-0.6805,-1.462,-0.5268,-0.08087000000000001,0.14514333333333335,0.0046566666666666345,1.482694025949456,1.3728600814467165,1.753175886623125,2.5577,2.9557,2.6874,-2.0999,-2.8226,-3.2313,0
-0.2885766666666667,-0.9829800000000001,-0.2766933333333333,0.1455579388927744,0.20306560244549474,0.12848704196930907,0.2404,-0.6722,-0.0684,-0.481,-1.4161,-0.5358,-0.0706933333333333,-0.045636666666666666,0.0048866666666666616,1.2734247569755195,1.270722513045598,1.523926641309205,2.2365,1.4053,2.213,-2.1534,-3.518,-2.8177,0
-0.2836366666666666,-0.9830233333333332,-0.2758566666666667,0.13644989602940993,0.23334339307542867,0.11649424340767414,0.067,-0.6785,-0.0875,-0.5399,-1.535,-0.4892,-0.06979333333333333,0.07491666666666666,0.09082000000000003,1.064717502417436,1.1496587970840062,1.3644054737604896,1.9446,1.9171,2.3699,-1.7072,-3.3549,-2.6198,0
-0.3082033333333333,-1.0193299999999998,-0.26883999999999997,0.15042923982857287,0.2525741545600502,0.1324298320386804,0.1297,-0.6332,-0.0289,-0.5844,-1.432,-0.5164,-0.05897999999999999,0.08480333333333334,-0.006980000000000009,1.5050669968820156,1.7936157110579798,1.6189411052736993,2.7744,3.4578,2.8901,-2.2914,-4.5836,-2.9062,0
-0.2770733333333333,-0.9685099999999999,-0.26935333333333333,0.12989408399719854,0.22807125981088483,0.12213024910777197,0.0468,-0.6513,-0.0747,-0.5272,-1.5878,-0.4945,0.012323333333333316,0.10362666666666666,-0.07196333333333335,1.308480431825889,1.1456429900469336,1.5056975632767262,2.0584,2.2799,2.3465,-1.9185,-2.8397,-2.4703,0
-0.27114666666666665,-0.984583333333333,-0.26532666666666654,0.10101468904223213,0.19677777783727182,0.1382175844228156,-0.0168,-0.6692,-0.0767,-0.5234,-1.284,-0.5254,-0.029890000000000003,0.14957999999999996,0.07307333333333332,1.179044252730385,1.1490035729364332,1.2924993603502275,2.0979,2.1827,2.2502,-2.098,-2.5651,-2.1199,0
-0.29793000000000003,-1.0242166666666668,-0.28606999999999994,0.10203620097957795,0.2775367115614938,0.11959108821024393,-0.0462,-0.5503,-0.0764,-0.523,-1.5873,-0.5207,-0.040086666666666645,0.059786666666666655,-0.029556666666666707,1.2528489667989495,0.9955552637922054,1.411853852376819,2.2178,2.7232,2.3291,-1.9512,-1.6525,-2.484,0
-0.31251999999999996,-1.0000833333333332,-0.2778933333333333,0.11379406808368563,0.1974022675398767,0.1250404484441992,-0.0764,-0.7493,-0.0625,-0.5124,-1.4546,-0.5305,0.028903333333333305,0.04719666666666668,-0.11074333333333335,1.2188732780398215,1.5344182043532246,1.5542349451126092,2.171,2.1914,2.4522,-1.877,-3.9363,-3.1339,0
-0.3253000000000001,-0.9923666666666663,-0.24729666666666666,0.1055921692498859,0.2531771035206905,0.1286174667264382,-0.0811,-0.654,-0.0396,-0.5476,-1.3872,-0.5232,-0.0953266666666666,0.12280333333333332,0.07838333333333332,1.3977688842391385,1.0621233886640131,1.6492496814556639,2.2751,2.0161,2.3428,-2.3393,-1.6862,-2.9214,0
-0.2686966666666667,-0.9690833333333332,-0.27734333333333333,0.1238111534258674,0.2199650177255204,0.11945610558242528,-0.0095,-0.6242,-0.1024,-0.4884,-1.3708,-0.4937,-0.05410333333333333,-0.07711999999999998,-0.0031933333333333297,1.1623674505028545,1.3744507418074945,1.4025965568663474,2.1553,2.9371,2.2115,-1.7091,-2.8638,-2.3502,0
-0.2998133333333333,-0.9822266666666669,-0.2783366666666666,0.1210736189076807,0.24496260085182792,0.11218807940650175,-0.0416,-0.5269,-0.1013,-0.4903,-1.4417,-0.4815,-0.11297,0.06462999999999997,0.08593666666666669,1.1038640986911885,1.1828598497883758,1.423576467062698,1.8704,2.6448,2.1884,-1.9225,-2.7884,-2.464,0
0.10954333333333333,-0.4451833333333334,-0.59958,0.4199098734854596,0.4971200847664082,0.31850427204410436,0.6489,0.0865,-0.0591,-0.476,-1.4221,-1.0548,-0.18592333333333336,0.17277000000000003,0.22406666666666666,0.8477280446656484,0.9477943197325259,1.2283098717015752,1.7257,2.4834,2.6525,-1.6828,-3.0832,-2.8609,0
-0.19552,-0.9015233333333335,-0.3161733333333333,0.29487510085364665,0.38472844581989063,0.20072002964041874,0.6736,0.0531,-0.0709,-0.4272,-1.3973,-0.8848,-0.020203333333333313,0.07408333333333333,-0.05423666666666669,1.1965707758894346,1.0751650975334082,1.388323255978936,2.3597,1.9539,2.2795,-1.8961,-2.7671,-2.4807,0
-0.30272666666666664,-0.9673633333333335,-0.2859833333333333,0.09498220498792297,0.21236956480972333,0.12524751517483798,-0.0677,-0.706,-0.0869,-0.4412,-1.3503,-0.5016,-0.08251666666666667,0.09575999999999997,0.046699999999999985,1.2864687138759376,1.0019367560741614,1.197405432159683,2.4433,2.8286,1.9177,-1.8909,-2.1486,-1.781,0
-0.2349966666666667,-0.9903266666666665,-0.24275333333333338,0.07352230008096455,0.3004943661567618,0.10636307932585518,-0.029,-0.5451,-0.0609,-0.3556,-1.4967,-0.439,-0.006536666666666658,0.051553333333333326,0.01911,0.8667768198941104,0.8584543446713152,0.895509313126643,1.5352,1.5372,1.7247,-1.4506,-2.6632,-1.4981,0
-0.24297333333333337,-0.9967133333333333,-0.25064666666666663,0.08086990801891954,0.25220261385794873,0.11154226578957084,-0.0222,-0.4631,-0.0576,-0.3916,-1.4546,-0.5064,-0.03449333333333334,-0.004649999999999976,0.03466333333333335,1.0163992790418446,0.761930173626664,0.985894715118633,1.7837,1.3559,1.725,-1.798,-2.5016,-1.5393,0
-0.25475,-0.9863099999999999,-0.25392333333333333,0.08915329204666882,0.2319002912222525,0.11195432160679096,-0.0183,-0.6509,-0.065,-0.3805,-1.5243,-0.4836,0.018073333333333327,0.021306666666666637,-0.01864666666666667,1.1375778130060723,1.3235392502115586,1.3497922534235776,1.8183,1.8532,2.4782,-2.0449,-3.4228,-2.383,0
-0.28467,-0.9823933333333333,-0.21729000000000004,0.10426477617932212,0.18581197566047938,0.10828703666803718,-0.0811,-0.6392,-0.0531,-0.5859,-1.3444,-0.4173,-0.020700000000000014,0.13156333333333334,0.024796666666666668,1.0005684725574069,1.0029988240386867,1.1426152532173977,1.5472,1.9508,2.2931,-1.7521,-2.1586,-1.3856,0
-0.2454966666666666,-0.96629,-0.22224999999999998,0.1098431906866779,0.18586942088651817,0.09920137565091769,-0.0142,-0.6962,-0.0866,-0.3919,-1.3941,-0.4388,-0.016396666666666667,0.01915666666666666,-0.018746666666666658,1.116678023697608,1.2748249409728525,1.1432243764845578,1.7381,1.4861,2.0598,-2.1553,-3.2516,-2.3081,0
-0.2841733333333333,-0.9667333333333336,-0.23255666666666663,0.08033987687376645,0.2103467749862746,0.11193408985320054,-0.0779,-0.5143,0.0142,-0.4464,-1.3513,-0.4322,-0.018773333333333315,0.04385333333333333,0.07013000000000001,0.9542297810938605,1.1421095764608917,1.2229788461107913,1.4842,2.1998,3.0002,-1.8264,-2.5106,-2.4301,0
-0.27664333333333335,-0.9842933333333335,-0.25117999999999996,0.08450932486125863,0.1938295819800856,0.11020872798530038,-0.0707,-0.7188,-0.0774,-0.4272,-1.4882,-0.4587,-0.012966666666666682,0.15374666666666664,0.06020666666666664,1.106892675647598,1.262493453375538,1.2544804141991197,1.9666,1.4945,2.0659,-2.0137,-2.9554,-2.7301,0
-0.27496,-0.9453533333333333,-0.27573000000000003,0.18069979791222027,0.29437849754370976,0.16498316350882386,0.5807,0.0518,-0.0792,-0.4666,-1.4708,-0.9054,-0.12726333333333337,0.14242666666666667,0.11048000000000001,1.1164060583989524,1.1151369682173833,1.2743077126356723,2.065,2.0877,2.0203,-1.8323,-3.2341,-2.2772,0
-0.2680766666666667,-0.9719033333333331,-0.28196666666666664,0.08096977164065754,0.19052681860881265,0.1131233514517589,-0.0835,-0.5843,-0.0994,-0.4097,-1.2355,-0.52,0.04602666666666666,-0.03958333333333332,-0.03016333333333333,1.0030939358265276,1.1790658020546234,1.1889235732762446,1.9667,1.3149,2.4341,-2.0208,-2.8676,-2.4876,0
-0.28408999999999995,-0.9666599999999999,-0.25,0.09698170943800301,0.21461669054868254,0.10311854243104607,0.0486,-0.6871,-0.0856,-0.5291,-1.3845,-0.4533,-0.1026133333333333,0.13351666666666664,0.13194666666666668,1.0777924845795186,0.9326660917381746,1.1589214521398268,1.7506,1.785,1.7824,-2.0505,-2.8878,-2.3866,0
-0.29389000000000004,-0.9801900000000001,-0.27374,0.12147240739616837,0.2053440483004409,0.11107936771081514,0.0771,-0.6814,-0.0939,-0.5708,-1.339,-0.5,0.07787666666666668,-0.08762,-0.10811333333333335,1.1477940944393663,1.1665863334444264,1.4163701273844795,2.0291,1.3687,2.4567,-1.7448,-3.3205,-2.3883,0
-0.2999533333333332,-1.0028966666666668,-0.25228666666666666,0.16031117743063145,0.25116035197120357,0.11979811389147169,0.1326,-0.6584,-0.0714,-0.6583,-1.4767,-0.4945,-0.014793333333333332,0.2317566666666666,0.011423333333333367,1.1507858142586094,1.5732250354591366,1.4160737548206852,2.2001,2.8725,2.4221,-1.7735,-3.8511,-2.8232,0
-0.32917666666666673,-1.0103700000000002,-0.2708433333333333,0.1348086016986825,0.23847419458456848,0.12802998216563705,0.001,-0.6283,-0.026,-0.5788,-1.373,-0.4874,-0.10610333333333331,0.07225999999999998,0.09654999999999998,1.2582950905157708,1.431619062604921,1.5854008688656631,2.0991,2.8035,2.3872,-2.0085,-4.2771,-2.6158,0
-0.30891333333333326,-0.9507733333333331,-0.27083999999999997,0.12985431022903118,0.24806360965845353,0.11027801106357481,-0.0368,-0.559,-0.1044,-0.6555,-1.3885,-0.475,0.08186333333333336,0.14027333333333328,-0.09242333333333336,1.0426659806620167,1.5727035790447703,1.5031951970623325,2.1355,5.6676,2.7878,-1.7561,-2.7831,-3.7838,0
-0.2692366666666667,-0.9624866666666667,-0.25976333333333335,0.13458171593633295,0.24398825259077297,0.11814803829951216,0.1848,-0.644,-0.075,-0.5122,-1.5044,-0.5087,-0.06735666666666666,-0.015890000000000005,0.07767666666666667,1.0809668155560248,1.3902761383736089,1.2724318551452984,2.0717,2.0679,1.9985,-1.8225,-3.6922,-2.0768,0
-0.25974,-0.97475,-0.24946,0.13380907035901876,0.21755431783096502,0.1404448611893036,0.0028,-0.6495,0.0531,-0.5009,-1.3556,-0.4731,-0.013963333333333343,0.031439999999999996,0.056823333333333316,1.1604132392602968,1.2878273662418342,1.375372448286553,1.9696,2.4602,2.102,-1.8201,-4.2919,-2.3036,0
-0.2933266666666667,-0.9793033333333333,-0.26042333333333334,0.12229181587450999,0.2188068845971864,0.13351327632120705,-0.0709,-0.6237,0.0183,-0.5043,-1.3772,-0.5527,-0.007600000000000007,0.04812000000000001,-0.020936666666666676,1.1944099847724556,1.131317943175889,1.3094033201485675,1.836,1.6799,2.0272,-2.2545,-2.7919,-1.9224,0
-0.31038,-0.9733766666666668,-0.2683066666666667,0.14509439353222012,0.2455429601899647,0.13452347297631442,-0.0295,-0.6705,-0.0751,-0.7423,-1.4739,-0.5018,-0.14371,0.02059000000000002,0.08401333333333331,1.235794510691471,1.1971479029847103,1.349288132806827,2.2354,1.7391,2.147,-1.7961,-3.1281,-2.3006,0
-0.27907,-0.9709466666666665,-0.2552866666666667,0.1047507424054014,0.21012840037386227,0.10262401995275944,0.0662,-0.6894,-0.0778,-0.4566,-1.4556,-0.4665,0.05046000000000002,-0.0669,-0.06464333333333332,1.0926147065482494,1.430812248942585,1.263194238943026,2.0137,2.2782,2.1743,-1.8397,-3.9397,-2.2394,0
-0.2939666666666667,-0.9711700000000001,-0.26120666666666664,0.12392076816098743,0.2181824262811536,0.10833041707834332,0.1372,-0.658,-0.0821,-0.4729,-1.4753,-0.467,-0.08113000000000001,0.18411333333333335,0.05348000000000001,1.0053875818601605,1.2310879379031274,1.3122333816292242,1.7748,2.1181,2.0237,-1.3515,-3.7731,-2.4675,0
-0.27645666666666663,-0.97288,-0.2575933333333334,0.1292967761907981,0.2686192657480741,0.11252373215837881,0.0919,-0.6478,-0.0918,-0.4421,-1.4687,-0.4665,0.04610666666666664,-0.046270000000000006,-0.10147999999999997,0.9281297798421755,1.3366517647104081,1.2913101185791225,1.7338,2.0413,2.0219,-1.5218,-2.8245,-2.4076,0
-0.3248166666666666,-0.9773966666666669,-0.3122833333333332,0.14158871736497042,0.27679437716450284,0.1501773390392823,0.0058,-0.6456,-0.0803,-0.66,-1.6733,-0.6128,-0.028213333333333333,-0.015493333333333352,-0.033659999999999995,1.3111070065310126,1.3104767600284686,1.585830885578652,2.3039,1.8542,2.0999,-2.178,-3.2379,-2.7478,0
-0.3209566666666666,-0.99504,-0.2834933333333333,0.1210168859215974,0.2738942063568743,0.13026404202111247,0.0137,-0.5808,-0.0774,-0.535,-1.4253,-0.519,-0.17375333333333334,0.05544666666666667,0.10292999999999998,1.1557050962383375,1.2987901350828417,1.56336451772319,2.6275,2.2874,2.2665,-1.8005,-3.2542,-2.655,0
-0.3314033333333334,-0.9857633333333332,-0.29991666666666666,0.1333370540716486,0.2766900238513318,0.1377598437144507,-0.092,-0.6212,-0.1025,-0.5375,-1.4646,-0.5743,-0.12157,0.12021333333333332,0.04460333333333333,1.3729813819844252,1.228753403259982,1.5768693831030574,2.3554,2.0077,2.3908,-1.9537,-3.0084,-2.6303,0
-0.31463,-0.9629766666666667,-0.3125966666666667,0.11324344892371449,0.29290727458659527,0.1377219224362637,-0.1455,-0.4965,-0.0805,-0.5371,-1.4708,-0.5424,-0.06988000000000001,-0.019226666666666666,-0.03669,1.4611708723509707,1.2313181260503843,1.661772591676814,2.2793,2.1823,2.5076,-2.0622,-3.2525,-2.8797,0
-0.3309566666666666,-0.9615666666666665,-0.29675333333333337,0.14773555051191126,0.2776653025314561,0.14091169338750184,-0.0667,-0.526,-0.0912,-0.5477,-1.4541,-0.5363,0.038569999999999986,0.13436666666666666,-0.09637000000000001,1.3601629294265472,0.8263640031772478,1.6107028857956218,2.3965,1.7132,2.9381,-1.8851,-1.5853,-2.583,0
-0.31073333333333336,-0.9728166666666667,-0.3031466666666666,0.14085044485585396,0.32462641030015993,0.128689792037724,-0.0874,-0.5059,-0.0989,-0.5475,-1.5474,-0.5192,-0.1413533333333333,-0.07090666666666667,-0.017873333333333335,1.2644392415921615,1.2025551477592613,1.8036762565867284,2.4559,2.2563,2.3595,-1.9345,-3.0489,-3.096,0
-0.3106033333333333,-0.9719333333333331,-0.27730000000000005,0.1159962082713626,0.2477191517846764,0.13049098793033365,0.0062,-0.6419,-0.098,-0.4812,-1.4771,-0.5566,-0.002449999999999971,0.10189666666666668,0.03863333333333334,1.113402889483562,1.3619760493320074,1.4407478865657513,2.0835,2.6106,2.5896,-2.0096,-2.7168,-3.514,0
-0.2852366666666667,-0.9447133333333332,-0.24906000000000003,0.148686774412042,0.22857637632986474,0.12323810595193634,0.1088,-0.6038,-0.0145,-0.5659,-1.4541,-0.5352,-0.1210766666666667,0.05703000000000002,0.049899999999999986,0.9591443772098823,1.6314493243844512,1.2408215190223635,1.7701,3.2581,1.9254,-1.7299,-4.2074,-2.3565,0
-0.2859733333333333,-0.9421733333333332,-0.2833433333333334,0.16295152216138592,0.2318689224441307,0.11730579749712619,0.1089,-0.62,-0.0852,-0.606,-1.4359,-0.5051,-0.03611000000000001,-0.1216466666666667,0.01188333333333335,1.159476022368844,1.621205657513575,1.4176530697827194,1.9766,2.6042,1.8761,-2.0944,-4.365,-2.5521,0
-0.30168,-0.9788566666666667,-0.2729933333333333,0.13737937254187763,0.2811988628555677,0.12189063196537928,0.0964,-0.4933,-0.0977,-0.5052,-1.5132,-0.5138,-0.09208,-0.010359999999999989,0.04658333333333332,1.2121314109935613,1.4279441512308817,1.6117366568679743,2.2121,3.1219,2.7291,-2.0212,-3.512,-2.566,0
-0.3011166666666666,-0.99904,-0.2582733333333333,0.12097876440426066,0.31956594872765604,0.12645281506072378,0.0443,-0.5905,-0.095,-0.5055,-1.5257,-0.5289,-0.11263666666666668,0.17434,0.04144666666666666,1.228469935770491,1.3435184268079146,1.5979244951592317,2.3773,2.182,2.6597,-1.7091,-3.3566,-2.7609,0
-0.32470999999999994,-0.9701933333333334,-0.2716366666666667,0.10442520950091672,0.28415619421832716,0.11586538706421444,-0.1318,-0.6236,-0.0728,-0.4964,-1.5858,-0.5262,-0.03301999999999999,-0.05542999999999997,-0.006506666666666661,1.033175975397188,1.3696888987700064,1.4999452245017975,2.0196,1.9324,2.1623,-1.5513,-3.393,-2.6261,0
-0.3056133333333333,-0.9849433333333333,-0.28221666666666667,0.15212747769967255,0.2623589942246591,0.11281549808955947,0.0283,-0.5875,-0.091,-0.5901,-1.4006,-0.4766,-0.03437000000000001,0.02484999999999998,-0.034493333333333334,1.309556540668213,1.7472727317559589,1.4858301543380488,2.3889,2.5383,2.1462,-1.9581,-4.0212,-2.9638,0
-0.29284666666666664,-0.9593366666666668,-0.2513666666666666,0.17554468874655946,0.26352712022096325,0.11409764521530742,0.1217,-0.5879,-0.0739,-0.5463,-1.4517,-0.4524,-0.0691833333333333,0.006726666666666673,-0.018796666666666666,1.0570654917509013,1.6895936450730584,1.4787024366637804,1.9426,2.5387,2.3164,-1.4965,-4.182,-2.4152,0
-0.3126266666666666,-0.9793266666666666,-0.28144,0.15387304649217032,0.2701250322674136,0.13789648191356418,0.1787,-0.6242,-0.0262,-0.5811,-1.5719,-0.5263,0.046076666666666696,0.1539066666666667,-0.1483466666666667,1.446100491734721,1.4701058906110116,1.5454083680225181,2.846,3.1968,2.2388,-2.2197,-3.6292,-2.7966,0
-0.30379666666666666,-0.9761000000000001,-0.25047333333333327,0.13293779329091285,0.31113142250336195,0.12001825991341351,-0.0005,-0.5355,-0.0731,-0.5423,-1.5155,-0.4985,-0.06611666666666667,0.16561,0.02996666666666669,1.2149823821862558,1.2056422538959517,1.5864055137394686,2.2335,1.9553,2.9791,-1.8619,-3.4801,-2.7978,0
-0.28581666666666666,-0.9859566666666667,-0.28453999999999996,0.1292263346795561,0.28836744959947497,0.13153899801959873,-0.0178,-0.5907,-0.0224,-0.5656,-1.4859,-0.4823,-0.027473333333333332,-0.08029666666666667,-0.026570000000000003,1.2663672932184142,1.3485921365179914,1.470665907851692,2.1287,2.04,2.2615,-1.9576,-3.6859,-2.7588,0
-0.2661799999999999,-0.9720300000000001,-0.28704666666666667,0.2596449384620573,0.3293996557479934,0.17427975871813275,0.6348,0.0812,-0.0589,-0.8387,-1.6598,-0.9055,-0.11849333333333331,-0.16461999999999996,-0.11212666666666668,1.172010753726507,1.0995559556412793,1.719389635674348,1.8176,1.9082,2.5406,-2.1437,-2.676,-4.1795,0
-0.5077200000000001,-0.9149166666666669,-0.22815333333333332,0.1708038467627867,0.26721871073675973,0.09228956579171337,-0.0087,-0.4188,-0.0613,-0.8398,-1.4496,-0.4446,-0.1039266666666667,0.18673333333333333,0.13559666666666673,0.7957969330015746,0.7537028447345278,1.8082420273013373,1.5139,1.9713,3.5423,-1.4386,-1.0834,-4.0565,0
-0.45231000000000005,-0.9596766666666666,-0.27634999999999993,0.128429111937689,0.1802400481414244,0.1322042718022327,-0.1702,-0.5971,-0.0566,-0.7137,-1.2882,-0.525,0.01704666666666666,0.002173333333333316,-0.06591,1.2190832348979275,1.1858474158790946,1.5711523202238629,1.7703,3.0583,2.4543,-1.901,-1.8352,-2.9724,0
-0.42940000000000006,-0.9234899999999999,-0.2607,0.14605643925645956,0.19681632142510525,0.13132619824249686,-0.1073,-0.6212,-0.0723,-0.8479,-1.277,-0.5346,-0.10565666666666666,-0.0019366666666666551,0.17869333333333334,1.288039502682765,1.3592000787692873,1.4186879098206429,2.4806,2.2726,2.3141,-2.021,-2.6266,-2.5373,0
-0.45088666666666666,-0.9308766666666668,-0.24839333333333335,0.12001198139419632,0.2384490948108043,0.133555229266277,-0.2589,-0.6303,-0.0504,-0.6991,-1.4295,-0.4782,0.08855333333333332,0.07591999999999999,0.027986666666666656,1.1705890302523454,1.6279136788518926,1.379674432544175,2.3445,4.3556,2.3838,-1.9003,-3.1735,-2.5901,0
-0.42170666666666656,-0.9297100000000001,-0.23587333333333332,0.1497062040806255,0.23730396388569253,0.15383657233735334,-0.1942,-0.5795,-0.0139,-0.6868,-1.3622,-0.5008,-0.16346999999999998,0.002603333333333339,0.2865733333333333,1.304392948555526,1.6618259294052664,1.38572403903801,2.5521,3.5063,2.3351,-2.3596,-3.694,-2.5549,0
-0.4448800000000001,-0.9492766666666664,-0.29169,0.1624643226617187,0.22951677526149755,0.16453387943751469,-0.0872,-0.6064,-0.0333,-0.768,-1.5392,-0.6762,0.04442000000000001,-0.11624000000000002,-0.06946666666666666,1.4195806453145676,1.333281478572116,1.6959138226994286,2.5537,2.1622,2.5506,-2.1583,-3.1389,-2.9596,0
-0.4436833333333334,-0.9526166666666669,-0.2634233333333333,0.10811935002845102,0.21813413950157357,0.14018989998381218,-0.2149,-0.6198,-0.0535,-0.5883,-1.367,-0.5326,-0.14325666666666667,0.10459666666666667,0.18409666666666666,1.3071706871326525,1.1537238504477378,1.3196069510126562,2.5229,2.5482,2.0485,-2.0483,-2.004,-2.3279,0
-0.42186666666666656,-0.9251866666666667,-0.26997000000000004,0.12263346377225758,0.24540481086442106,0.13979182835867793,-0.1451,-0.5432,-0.0484,-0.6205,-1.4317,-0.496,0.03834999999999998,0.05386666666666669,-0.04004333333333333,1.1040789323201052,1.1080269610604165,1.2100642686503755,1.8728,2.5331,1.8743,-1.7335,-2.6496,-2.3502,0
-0.43767,-0.9406866666666668,-0.28251666666666664,0.15915952125743701,0.2420917491128224,0.14919285155134943,-0.0516,-0.53,-0.035,-0.6787,-1.3637,-0.5817,-0.04128666666666668,-0.020353333333333296,-0.030400000000000014,1.4683271142013454,1.5309884449063558,1.1749192060263782,2.381,3.2141,2.1473,-2.3417,-2.7367,-2.2041,0
-0.4264966666666668,-0.94309,-0.24762333333333333,0.16899827479905669,0.23429570668796684,0.1260093912300227,0.0318,-0.5763,-0.0503,-0.6662,-1.4162,-0.471,-0.018783333333333343,-0.05013333333333334,0.04853333333333329,1.265917214998629,1.5286710828494894,1.368952033197439,2.5239,3.3915,1.9083,-2.1843,-4.4136,-2.6386,0
-0.4443633333333332,-0.9433633333333333,-0.23986999999999997,0.1329211134556841,0.24997357306300405,0.12279462290260555,-0.2417,-0.5796,-0.0504,-0.7122,-1.5715,-0.4483,0.04165999999999997,0.06009333333333332,-0.04555666666666669,1.2917429603393265,1.3139327951987692,1.3413542484301488,2.1888,2.0017,2.2038,-1.6605,-4.1113,-2.7909,0
-0.42674,-0.9336866666666668,-0.24641333333333332,0.12911826602262616,0.1960341274534533,0.1405924796471466,-0.164,-0.6312,-0.0432,-0.6305,-1.3073,-0.4671,-0.08256333333333334,0.043583333333333335,0.08733666666666665,1.2932990137450902,1.2099002914413588,1.2686907942315242,2.1771,2.0998,1.6953,-1.7062,-3.0952,-2.1273,0
-0.4338033333333334,-0.96426,-0.23977000000000004,0.14382495223380912,0.2649638174387668,0.13797903176532494,-0.1184,-0.5597,-0.0306,-0.7081,-1.4934,-0.4704,0.05435333333333335,-0.09139666666666663,-0.07772333333333335,1.3492573302614919,1.1004790998918836,1.4191806144157035,2.3541,2.1319,2.2304,-1.9574,-2.3196,-2.4563,0
-0.44156666666666666,-0.92164,-0.2316766666666667,0.11382072210985657,0.24358435429060796,0.1301132310145954,-0.2402,-0.5679,-0.024,-0.6228,-1.4611,-0.4637,-0.03932000000000002,0.09593666666666664,0.06924000000000001,1.1693287506823793,1.331189460202425,1.2380859639810544,2.3963,2.8043,1.8269,-1.7942,-3.7146,-2.2548,0
-0.4294399999999999,-0.9349700000000001,-0.24068333333333328,0.10767702217023033,0.24229505829847642,0.12849277474208246,-0.2151,-0.5847,-0.0573,-0.6315,-1.3867,-0.4533,-0.05142333333333333,0.04266,0.0006600000000000013,1.1060247723369439,1.1830888227359595,1.3041500428274715,1.8306,2.7967,1.9833,-1.725,-2.5901,-2.3134,0
-0.44559000000000004,-0.9507733333333335,-0.24730999999999997,0.17775831199344408,0.2635845672492114,0.14998671745789058,-0.1631,-0.5119,-0.0062,-0.7767,-1.3995,-0.5451,0.03373333333333335,-0.009300000000000001,0.017116666666666638,1.4518171959908426,1.4287256260327796,1.7244341548868225,2.7328,2.1245,2.8232,-2.4613,-3.3701,-3.2062,0
-0.42575666666666667,-0.9394066666666665,-0.23013333333333333,0.12248174440562022,0.25187042636673507,0.12372404313865075,-0.2216,-0.5655,-0.0171,-0.6606,-1.3802,-0.4768,0.02168000000000001,-0.025856666666666656,0.0035166666666666567,1.1806850584183803,0.9937313578154545,1.4651739845100504,2.2187,1.7882,2.2598,-1.6727,-2.3507,-2.594,0
-0.45616999999999996,-0.9734066666666668,-0.22624999999999998,0.12985272865030997,0.2598183940467985,0.12466761808906113,-0.1914,-0.5882,-0.0427,-0.6615,-1.4311,-0.4478,-0.08077333333333332,-0.05652000000000001,-0.0321266666666667,1.0588266192390499,0.7011431898618535,1.2506952394660293,1.4587,0.8981,1.8852,-1.8028,-2.0314,-2.6203,0
-0.41167333333333345,-0.9255800000000002,-0.25309666666666664,0.10077498982740035,0.18120314833224407,0.10784767509310761,-0.2318,-0.6456,-0.087,-0.595,-1.2994,-0.4331,-0.004759999999999983,0.07797000000000003,0.028363333333333317,0.9647516477275919,0.8561192642302864,1.2024346619236332,1.5403,1.373,1.7199,-1.5554,-1.8811,-2.2532,0
-0.3979166666666666,-0.8948066666666666,-0.26747333333333334,0.06864992695745838,0.1098249168805335,0.10207056698029143,-0.242,-0.6507,-0.0917,-0.5503,-1.0961,-0.4254,0.028353333333333355,-0.019533333333333337,0.02828666666666665,0.9750264840729602,0.9536685758918966,1.1694015102734754,1.3615,1.2018,1.7823,-1.3756,-2.1989,-1.5952,0
-0.4386,-0.9627599999999998,-0.22227,0.09167194509358564,0.15285747610110537,0.12134238577762882,-0.3087,-0.7371,-0.0388,-0.622,-1.1784,-0.4675,0.030233333333333327,0.19362999999999994,0.025016666666666694,0.9944422797810298,0.9579998528363574,1.0756420934311373,1.3999,1.7299,1.61,-1.6524,-2.297,-1.3484,0
-0.4208666666666667,-0.9327433333333335,-0.24277999999999997,0.0921744946894984,0.17064805622084897,0.08658061182982935,-0.2443,-0.6982,-0.1,-0.5847,-1.3396,-0.3952,-0.1089833333333333,-0.10509666666666669,-0.07809666666666665,0.9062368393653992,0.6814263789937294,1.1193386990057808,1.0059,1.3202,1.7045,-1.3895,-1.4664,-1.7341,0
-0.43671333333333334,-0.9471433333333334,-0.26009333333333334,0.1550073607447642,0.21417822530640757,0.13495529510975446,-0.1684,-0.5027,-0.0452,-0.7625,-1.4,-0.5136,-0.12343333333333328,0.0010366666666666636,0.13092,1.243613393560747,1.293893588462501,1.4478194544519891,1.9709,2.7852,2.5204,-2.1129,-3.8618,-2.3601,0
-0.43418999999999996,-0.9446666666666668,-0.21975333333333333,0.15067376805307003,0.22545121856850314,0.13545271151760405,-0.0312,-0.6253,0.0148,-0.753,-1.3596,-0.4426,0.039183333333333355,0.21152999999999997,0.07170000000000003,1.242102945115407,1.0827433752534221,1.2626622176425766,2.6456,3.2222,1.9101,-1.779,-2.111,-2.3707,0
-0.4205033333333334,-0.9569133333333333,-0.25204999999999994,0.12552242136115688,0.2239454301345775,0.10449471443488224,-0.0845,-0.5416,-0.0597,-0.6269,-1.3324,-0.4368,0.06874333333333338,0.15611666666666663,-0.04251333333333331,1.2282857385981805,0.985234108039139,1.2156667552483666,1.8881,2.9131,1.6517,-2.1421,-1.9335,-2.4996,0
-0.4557033333333333,-0.9839133333333333,-0.22740333333333332,0.12466543221160287,0.17735698023134475,0.156727385726878,-0.182,-0.6366,0.0364,-0.8018,-1.3841,-0.5105,0.08260333333333333,0.31214666666666663,0.18215,1.5314867307751083,1.0220377102609286,1.2470968271867708,2.4285,1.9999,1.9424,-2.0592,-2.134,-2.0089,0
-0.2352266666666667,-0.9850266666666667,-0.2310233333333333,0.08103625809745156,0.26078187071181547,0.08860695342580231,-0.0728,-0.5804,-0.0716,-0.4182,-1.5131,-0.3668,0.06554333333333331,-0.013073333333333315,-0.012853333333333324,1.0120450639698546,0.9179283181138941,1.0014554800073647,2.4973,1.8805,1.6647,-1.6934,-2.1829,-2.1571,0
-0.26382,-0.9744666666666667,-0.24294666666666662,0.06932148196676817,0.2223366387250204,0.07564331788221539,-0.0339,-0.5448,-0.0885,-0.3963,-1.2533,-0.3657,-0.021980000000000006,-0.005096666666666665,0.022469999999999997,1.105774833786012,0.7844555645459635,0.9867471765595662,2.0616,1.8035,1.8256,-1.7384,-1.5545,-1.9939,0
-0.26191333333333333,-0.9975900000000001,-0.2328966666666667,0.0966622728291951,0.23777639503214515,0.07135972245255545,0.0492,-0.5817,-0.0936,-0.4839,-1.532,-0.3328,-0.043236666666666666,0.10306,0.054016666666666616,0.9778628902138945,0.8496160007260074,0.8994179834887607,1.6663,2.3938,1.6829,-1.687,-1.6452,-1.7008,0
-0.23971333333333333,-0.9578000000000001,-0.2452966666666667,0.05339228753121645,0.2145541503869731,0.0798134915711724,-0.1453,-0.6112,-0.1071,-0.3738,-1.3504,-0.374,0.04898333333333331,0.09427333333333336,-0.007036666666666676,0.9354889122191975,0.7607509162043429,1.0704491781920122,2.0195,1.6612,1.5857,-1.3951,-1.7037,-2.2413,0
-0.23883333333333331,-0.9761166666666666,-0.2566399999999999,0.10746306930461189,0.2077271371432898,0.08435368315651051,0.1688,-0.6848,-0.0986,-0.4586,-1.3333,-0.3954,-0.04952000000000001,0.07975,0.08354,0.920217782469136,0.7822453207891701,0.955153013414334,1.5658,1.7657,1.4446,-1.4725,-2.2926,-1.9025,0
-0.26627,-0.9822,-0.23951999999999998,0.08809153213835459,0.22396444453036088,0.08817334963699007,-0.0792,-0.6521,-0.0789,-0.4408,-1.4015,-0.4131,-0.0011533333333333395,0.06613666666666666,-0.00927333333333331,1.0074820627250114,0.8418949477767128,1.1123120794197052,2.1573,1.7805,1.8672,-1.6232,-1.8637,-2.3011,0
-0.25260000000000005,-0.9477666666666668,-0.24960666666666664,0.06825536230039819,0.2174870766407676,0.09355604602122965,-0.152,-0.567,-0.0828,-0.5035,-1.2743,-0.4052,-0.14024666666666666,-0.07683333333333331,0.07763000000000002,0.9208666786327389,0.9322631115706563,0.9018852565407183,1.9313,1.4536,1.3585,-1.5866,-2.4797,-2.0215,0
-0.2614733333333333,-1.0317700000000003,-0.25406333333333336,0.0794000995974939,0.24710617451362607,0.11135003052918566,-0.1229,-0.6729,-0.0044,-0.4174,-1.4275,-0.422,0.027806666666666684,0.11330333333333337,-0.04740666666666669,1.1801673747260668,0.710929081522217,1.0941465318034287,2.0984,1.3968,2.0215,-2.2678,-1.8495,-2.0951,0
-0.26385999999999993,-0.9747833333333334,-0.25612666666666667,0.08200589381678403,0.20093094213123852,0.09488796273113027,-0.0381,-0.6248,-0.069,-0.4116,-1.2607,-0.3775,-0.05949,-0.010053333333333355,0.06700333333333332,1.2216565647964837,0.794344364536732,1.0294888425257738,2.0051,1.3078,1.6126,-1.8791,-2.2888,-1.9123,0
-0.28762666666666675,-0.9691199999999999,-0.26098,0.08945941454410884,0.17553813693109932,0.0732869297280594,0.0327,-0.6916,-0.1416,-0.4191,-1.2587,-0.4459,-0.06805999999999998,0.04690999999999998,0.018096666666666657,1.1407130161619878,0.7162327310790575,1.0199880139536912,1.7971,1.1741,1.5309,-1.8514,-2.3665,-1.5619,0
-0.2584333333333333,-0.9918566666666668,-0.26211,0.07482383602022559,0.1836833945591751,0.0822687871846157,-0.1004,-0.5945,-0.0667,-0.4753,-1.2368,-0.3866,-0.08442999999999999,0.04992666666666667,0.10126999999999999,1.2158512698715562,0.62619408852667,0.9750127819321317,1.8632,0.9143,1.7581,-1.9399,-1.7078,-2.1962,0
-0.25996333333333327,-0.9661433333333335,-0.2567166666666667,0.07627971883631407,0.1827417561390434,0.07143896398123815,-0.0767,-0.5806,-0.1083,-0.4145,-1.2595,-0.3601,0.04030333333333335,0.04898000000000001,0.02210666666666667,1.0476375434291667,0.6685001706857647,0.8840635551866142,1.9719,1.1095,1.3602,-1.5335,-1.434,-1.9108,0
-0.26096333333333327,-0.9802333333333334,-0.26023999999999997,0.08037826727775807,0.1973357201238073,0.09503990305347428,-0.1049,-0.6456,-0.0922,-0.4052,-1.3763,-0.429,0.00897333333333334,-0.04848666666666665,-0.020023333333333344,1.228754972328897,0.9685588635854224,1.0218860297081291,2.1538,1.3749,1.4712,-1.895,-2.324,-1.8672,0
-0.2709466666666666,-0.9711400000000002,-0.2472833333333333,0.09208711667476219,0.18350964007375742,0.10454165671399009,-0.128,-0.6465,-0.0379,-0.6412,-1.2839,-0.4113,-0.21415999999999996,0.12071333333333338,0.19794000000000003,1.1021654108288765,0.6621084361306706,0.9840644601819046,1.7273,1.5503,1.6578,-1.7337,-1.4229,-1.5926,0
-0.2581633333333333,-0.989916666666667,-0.2620733333333333,0.06910621751225121,0.21276628116856028,0.09380499925407744,-0.0363,-0.6047,-0.0564,-0.3566,-1.332,-0.3975,0.16959,0.10513333333333331,-0.11855333333333334,1.2448600531648195,0.7769205712445697,0.9734783616011952,2.2577,1.7443,1.6004,-1.9259,-1.6684,-1.8527,0
-0.24747333333333338,-0.9703499999999999,-0.26016666666666655,0.08609082987464896,0.22268632454178916,0.08144431706146965,-0.0462,-0.5909,-0.1231,-0.4711,-1.3648,-0.3913,-0.1129333333333333,0.04749333333333336,0.16380333333333333,1.156266687211053,0.6243835895109471,0.9542202295802735,2.117,1.0696,1.7107,-2.2781,-1.6285,-2.1111,0
-0.24974000000000005,-0.98072,-0.2587966666666667,0.07985580798517737,0.1799022884215494,0.08675617630138377,-0.0788,-0.6039,-0.0963,-0.3694,-1.3783,-0.4295,0.03592666666666665,-0.03633333333333332,-0.01950333333333336,1.0941084813305948,0.878410194547546,1.086249375535183,2.2525,1.9691,1.6768,-1.6071,-2.0595,-2.1518,0
-0.25014,-0.95455,-0.24172333333333332,0.0796777284678291,0.2605235693222665,0.08621971405632255,-0.1168,-0.5486,-0.0706,-0.4707,-1.4003,-0.3831,0.010116666666666682,0.015693333333333354,0.01670666666666665,1.0754032850864426,0.9389246960122037,1.211423140554639,2.171,1.8546,1.8805,-1.4038,-2.0279,-2.4801,0
-0.23803,-1.0079300000000002,-0.24965333333333334,0.08511041976000434,0.23139654447096533,0.09105871441693195,-0.0283,-0.616,-0.089,-0.4011,-1.4178,-0.4136,0.04561333333333333,0.04751666666666668,-0.04126999999999998,1.0295781458620719,1.0550230375269745,0.975634275086796,2.3206,2.2974,1.4023,-2.015,-2.946,-2.2072,0
-0.23778,-0.96086,-0.25075333333333333,0.07885685591080797,0.22563775454445134,0.09092466276456886,0.0392,-0.6055,-0.078,-0.3641,-1.3553,-0.4223,0.011109999999999986,-0.0125,0.04254666666666669,1.05775498249831,1.075861181277264,0.9476160683101255,2.283,1.8498,1.6914,-1.7316,-3.0095,-2.3499,0
-0.2526833333333333,-0.9755866666666667,-0.2141133333333333,0.06782409338633404,0.19379691776014737,0.09702846625793803,-0.1114,-0.6736,-0.006,-0.4233,-1.2908,-0.3764,-0.031056666666666698,0.12480333333333332,0.08010333333333332,0.8952941137561649,0.7459407342101804,0.7497438061205254,1.7702,1.6802,1.5751,-1.8075,-1.9163,-1.5218,0
-0.24910333333333334,-0.98202,-0.2557633333333333,0.0658460769566017,0.21075123658981917,0.08889989132817272,-0.1257,-0.6085,-0.0795,-0.3849,-1.4065,-0.3753,0.06362333333333331,-0.004600000000000001,-0.0028033333333333226,1.0942365528416205,0.7825706168422297,0.868692754098357,2.3768,1.4188,1.3866,-1.9254,-1.8048,-1.9465,0
-0.23592666666666667,-0.9464,-0.26014,0.05827935065392955,0.1969695022778557,0.07030752449062619,-0.1086,-0.6661,-0.1127,-0.3259,-1.3641,-0.3665,-0.09443666666666668,-0.03315333333333334,0.06125666666666665,0.8192786648498549,0.777348900378421,0.769084583341347,1.3842,1.3782,1.592,-1.6928,-1.5197,-1.3948,0
-0.26942000000000005,-0.9832866666666668,-0.23745333333333332,0.0718638050951842,0.22163220034526812,0.09442363721212932,-0.1571,-0.5373,-0.04,-0.3824,-1.3785,-0.3899,0.020600000000000014,0.0035633333333333185,0.013349999999999999,1.0718617174707334,0.7263909356316447,1.1100517970983963,2.185,1.5283,1.8906,-1.6277,-1.5545,-2.4587,0
-0.23823333333333335,-0.9693733333333336,-0.2650233333333334,0.07579402821227857,0.19897543416788627,0.1034319989282758,-0.0852,-0.5883,-0.0857,-0.3852,-1.2905,-0.4238,-0.12049666666666668,0.07902666666666665,0.11940666666666667,0.9852679654701095,0.9926617109407495,0.8918965959600123,1.5471,2.3403,1.492,-1.5797,-1.4133,-1.4827,0
-0.21137666666666663,-1.0089833333333333,-0.26300999999999997,0.0884720204488337,0.2327374072793766,0.10867920002116954,-0.0519,-0.6289,-0.0653,-0.3522,-1.4218,-0.4304,-0.001809999999999982,0.053189999999999994,0.05205000000000001,1.145366430253534,0.9401887295314335,0.9213231773210557,2.3559,1.6688,1.4302,-1.6412,-1.9646,-1.8611,0
-0.23652333333333336,-0.9827433333333332,-0.26081333333333334,0.08831064950554919,0.22693938076109638,0.09365835468498714,-0.036,-0.5806,-0.1045,-0.4151,-1.3922,-0.3899,-0.05057,-0.026706666666666674,0.05524333333333334,1.1215790439499063,0.993422261482596,1.028330954603333,1.8957,1.8902,1.8529,-2.2756,-2.6505,-2.6457,0
-0.24404000000000003,-0.9764533333333333,-0.2651233333333333,0.07959869432302914,0.16823795080764037,0.09183543634031524,-0.1268,-0.6853,-0.1062,-0.4392,-1.3158,-0.4266,-0.024106666666666648,0.08582666666666668,0.02922000000000001,0.9833712954838619,0.7880069472533476,0.848246607521901,1.7808,1.1906,1.5806,-1.491,-2.4154,-2.0241,0
-0.21911666666666668,-0.9851,-0.2373,0.08276041900584474,0.191085528783173,0.10126796818002397,0.0123,-0.5987,-0.0849,-0.354,-1.3034,-0.437,0.04872666666666669,0.03195333333333334,-0.02522333333333332,0.7718774299398674,0.6952432398626488,0.7518457984249133,1.6244,1.4778,1.0444,-1.236,-1.4061,-1.6302,0
-0.27862000000000003,-1.0025333333333333,-0.24274666666666664,0.11957996430033321,0.25703297431469274,0.10187615109003452,-0.0255,-0.4299,-0.0915,-0.6065,-1.4958,-0.4479,-0.022589999999999985,0.03958666666666665,0.00931666666666667,1.2888843382874813,1.0883846314713328,1.2566357014920306,2.2263,2.073,2.4812,-2.0648,-2.6681,-2.6647,0
-0.24831999999999993,-1.0055633333333331,-0.2579533333333333,0.11755669329277274,0.2598901617903269,0.11254599284624542,-0.0265,-0.5861,-0.082,-0.5587,-1.4857,-0.4537,-0.05923000000000001,0.14029666666666663,0.06616666666666664,1.3290391058697386,1.161085194974299,1.0223083104470958,2.0782,2.1742,1.5913,-2.1982,-2.9969,-1.8815,0
-0.26692666666666665,-1.0515866666666664,-0.26647000000000004,0.0915240459579107,0.22864405363876797,0.10570362323741436,-0.0688,-0.6699,-0.0661,-0.4392,-1.39,-0.4286,-0.033736666666666644,0.03017999999999999,-0.09206,1.387605033361149,1.29308238833977,1.1261157258470376,2.5076,2.1283,1.7097,-2.1462,-3.6168,-2.0215,0
-0.24336333333333335,-0.9876433333333333,-0.2658133333333333,0.1039794425416119,0.20910002668799335,0.11083652993402533,-0.0126,-0.6431,-0.0892,-0.441,-1.3155,-0.4388,-0.12346,0.02563333333333335,0.05649333333333332,1.257769303609946,1.0494042452196661,1.1416289683313634,2.2957,1.6619,1.6143,-2.0013,-3.9151,-2.0557,0
-0.23084999999999997,-1.0109199999999998,-0.24647666666666668,0.11476996708559076,0.23082604795341685,0.10219091559373102,0.0669,-0.5172,-0.0757,-0.4551,-1.5053,-0.4338,-0.05368000000000001,0.013583333333333333,0.10809666666666669,1.1442683280082337,1.1868885690029563,1.0714387409020392,2.3415,1.82,1.9229,-1.9197,-2.438,-2.195,0
-0.2428133333333333,-0.99248,-0.29706999999999995,0.08201109989353347,0.22984811236688604,0.1179966105591524,-0.0699,-0.5982,-0.0752,-0.5417,-1.3689,-0.5038,0.08425333333333335,0.04654,-0.12566333333333335,1.3327866468504959,0.9529872798658998,0.9572953453685898,2.1736,1.7772,1.3612,-2.2561,-2.1081,-2.2811,0
-0.2587133333333334,-0.9819133333333331,-0.23096666666666668,0.04829341879439242,0.16241467517636357,0.10082475521600742,-0.1588,-0.6381,-0.0417,-0.3871,-1.364,-0.4518,-0.07477333333333334,-0.015946666666666668,0.058493333333333355,1.0357975620791908,0.6008681350164619,0.9223639598535828,2.3557,0.9774,1.4624,-1.8673,-2.4382,-2.2609,0
-0.28106333333333333,-0.9602633333333334,-0.2576333333333333,0.10103517818010249,0.2171619774989728,0.12369686621998019,-0.1003,-0.6531,0.0191,-0.5738,-1.6884,-0.4897,0.003953333333333312,0.10098999999999998,0.017259999999999987,1.3374839445335627,0.839975698478523,0.9971235943867535,1.9676,1.8876,2.2095,-2.4013,-1.7646,-1.7036,0
-0.09693666666666666,-0.9709533333333332,-0.17637000000000003,0.23362468499022446,0.25714043222538435,0.2242159767754727,0.4467,0.1137,0.1674,-0.3992,-1.434,-0.8849,0.08760333333333334,-0.054319999999999986,0.01563666666666667,1.1427236442945796,0.9414742062135942,0.9074159539245392,2.5875,1.8427,1.6476,-1.9918,-2.2178,-1.6882,0
-0.2572933333333334,-0.9988166666666668,-0.25588666666666665,0.0943061007765572,0.2524099294228822,0.10453101745030229,0.0251,-0.5961,-0.0889,-0.4567,-1.3925,-0.4741,0.04473333333333333,0.04999999999999998,0.009253333333333313,1.3162966873753812,1.2534508650260219,1.2459418043456492,2.5059,2.385,1.8314,-1.7962,-3.1005,-2.2558,0
-0.2596233333333333,-1.0099466666666665,-0.2775933333333333,0.08078021131582837,0.2053923742554695,0.10623892374991491,-0.1052,-0.5898,-0.0819,-0.4624,-1.3065,-0.4595,-0.023243333333333328,0.045190000000000015,0.1179166666666667,1.1469548882339176,1.2177213673567697,1.1383951414111473,2.1153,2.9423,1.7985,-1.7173,-2.5035,-1.9581,0
-0.22852000000000003,-0.9129833333333331,-0.29359,0.14567793812095367,0.23922538079412048,0.14431639892957415,0.4975,-0.0403,-0.114,-0.3625,-1.2396,-0.8996,0.022266666666666678,-0.008900000000000012,-0.025140000000000013,0.8203278425089582,0.7704177841074059,0.8616892017507202,1.9772,1.5739,1.6675,-1.8134,-1.9844,-1.9107,0
-0.29339999999999994,-0.92606,-0.24728000000000003,0.0732924562143406,0.14788982292280264,0.09332790320821197,-0.1159,-0.6237,-0.1076,-0.4015,-1.1813,-0.3692,-0.02004666666666668,-0.08222666666666666,0.054196666666666664,1.0652780105756863,0.9950489261695951,1.046956128739761,1.6743,1.1268,2.073,-1.5815,-3.0898,-1.9212,0
-0.3134766666666666,-0.9665,-0.23833,0.05809760920556283,0.19906386429727901,0.09725546930813109,-0.2025,-0.6389,-0.0918,-0.4119,-1.2862,-0.4133,-0.03974333333333332,0.006536666666666672,0.05408666666666663,1.0952754843774057,0.5616785750877842,1.0763144780584162,1.5811,0.6078,1.6077,-1.8913,-1.4362,-1.9527,0
-0.31175,-0.9816033333333334,-0.23497000000000004,0.058110036820762254,0.16709490279547695,0.09866434967378909,-0.1959,-0.7059,-0.0747,-0.4362,-1.3174,-0.403,-0.04151666666666668,0.08007,0.08795666666666668,0.9843979777905687,0.5272135555985795,0.8886486799254997,1.508,1.0527,1.5099,-1.603,-1.2545,-1.3966,0
-0.31073666666666677,-0.9474000000000001,-0.23123666666666667,0.06608138912360839,0.17018456512532668,0.08729593537693112,-0.1662,-0.5994,-0.0916,-0.4423,-1.2421,-0.3581,-0.09811,0.04260333333333335,0.11859999999999998,0.900863532223197,0.7479362721715568,0.855742927882369,1.4129,1.3297,1.4532,-1.6352,-2.016,-1.6812,0
-0.30316333333333334,-0.9767766666666666,-0.25614000000000003,0.06711264582688614,0.22150063233868383,0.09603962400650236,-0.1348,-0.5074,-0.0663,-0.4052,-1.3584,-0.4263,-0.018613333333333325,0.03425333333333332,0.06909000000000001,1.0444213648725782,0.9722261035210977,1.0540718919242782,1.9928,1.4793,1.9144,-1.6179,-2.3235,-2.3486,0
-0.2904900000000001,-0.9754200000000001,-0.23993666666666663,0.10496203040903034,0.19134623862120403,0.10388715523580624,-0.0863,-0.6411,0.0411,-0.4842,-1.3568,-0.4174,0.08854000000000002,0.07552333333333332,-0.04156666666666666,1.0074076610718259,0.9333685651457836,1.0708111947083125,2.2369,1.4605,1.64,-1.7647,-2.6629,-2.039,0
-0.28840000000000005,-0.9932833333333332,-0.21912999999999996,0.09369078635744212,0.1841727208137894,0.10987738354089575,-0.0908,-0.6821,0.0219,-0.4669,-1.2927,-0.4241,-0.08506333333333332,0.06418333333333334,0.07640333333333332,0.8973741946149998,1.00797604654193,0.9364744908738685,1.6831,3.0409,1.5706,-1.5397,-1.9913,-1.7991,0
-0.30677666666666664,-0.9723633333333332,-0.23611666666666667,0.0693630562670983,0.19850645170325343,0.07973922620268081,-0.1612,-0.6264,-0.1141,-0.4232,-1.3302,-0.362,0.017499999999999998,0.03235666666666667,-0.040263333333333345,0.9503221566286405,0.8130523033959569,0.9886881163278014,1.5705,1.7607,1.3653,-1.4329,-1.6515,-2.0424,0
-0.29117999999999994,-0.9744366666666668,-0.23004666666666676,0.052427706547140726,0.1728162537920338,0.08580285234923352,-0.1553,-0.6137,-0.1034,-0.3723,-1.2763,-0.3629,-0.012103333333333332,0.09269666666666666,0.03726333333333334,0.883156483374513,0.5184296304346846,0.9006200119087822,1.7099,0.8811,1.5175,-1.3634,-1.0347,-1.9829,0
-0.30923333333333325,-0.9592633333333332,-0.2319266666666667,0.061033260199457734,0.17705367875568,0.07870853668520611,-0.21,-0.6277,-0.063,-0.4469,-1.289,-0.339,-0.04046333333333332,-0.0046600000000000105,0.10320333333333333,0.802629894303648,0.7474804860098472,0.9566256776973348,1.6614,1.5611,1.6355,-1.1381,-1.8679,-2.1959,0
-0.31532333333333334,-0.9682966666666669,-0.22921666666666674,0.07639785916540771,0.20875863720860846,0.08240364522960399,-0.1532,-0.5759,-0.1008,-0.4916,-1.3036,-0.3806,0.041546666666666655,-0.013853333333333325,-0.10645666666666667,0.9942967151444916,0.6644115658096336,0.9754421811399826,1.5426,1.5935,1.4304,-1.6997,-1.3919,-2.0997,0
-0.2989566666666666,-0.96838,-0.23385999999999996,0.07947156369910945,0.17704635356410145,0.08581918280857162,-0.1147,-0.6756,-0.1062,-0.4664,-1.277,-0.3768,-0.024993333333333322,0.07308666666666662,0.07153999999999999,0.8930236591580831,0.7984737163352097,0.9548159889882376,1.733,1.2922,1.5784,-1.3173,-2.6608,-1.7221,0
-0.3015266666666666,-0.9673333333333333,-0.24182666666666666,0.07818685370287018,0.2015771920823784,0.08069732266350273,-0.1741,-0.5444,-0.1085,-0.4356,-1.3366,-0.3828,-0.04212333333333334,0.06986666666666662,0.11357666666666665,1.034414345942647,0.8996029213447196,0.9347619928248503,2.1068,1.898,1.588,-1.3751,-2.2427,-1.4996,0
-0.3024299999999999,-0.9625166666666666,-0.24876666666666672,0.08879216395217736,0.17664287385869112,0.09476974030860758,-0.1388,-0.6297,-0.0872,-0.4619,-1.2497,-0.4062,-0.032796666666666655,0.00048333333333331713,0.05828666666666666,1.098278393977666,0.9408611767155528,1.0140536943320635,1.8299,1.4785,1.5493,-1.5153,-2.4328,-1.949,0
-0.32146333333333327,-0.9757433333333333,-0.24475000000000005,0.0910508326509801,0.2177320033868484,0.09584353179117983,-0.1149,-0.5766,-0.0503,-0.4722,-1.449,-0.4061,0.03975,-0.001889999999999999,-0.030313333333333334,0.9579689476466199,0.727977017612791,0.895697375669712,2.044,1.1024,1.3478,-1.4482,-2.4714,-1.7639,0
-0.3237466666666667,-0.9677433333333335,-0.23610666666666666,0.06966914289170183,0.2209625396295495,0.08507688179577313,-0.1601,-0.5623,-0.1023,-0.435,-1.2563,-0.3766,-0.06779333333333332,0.08279,0.04314666666666669,1.2837906529663152,0.7870108579849499,1.0348180342234197,2.2323,1.5342,1.4236,-1.7748,-2.068,-1.9833,0
-0.3286833333333333,-0.9659766666666667,-0.2401133333333333,0.10557824058515784,0.19923291114938183,0.09486768910847153,-0.1304,-0.5567,-0.0821,-0.5102,-1.2442,-0.4424,0.0075133333333333345,-0.018946666666666667,0.0046300000000000004,1.2301980024911978,0.9948679675813973,1.2618085160347952,2.3259,1.3285,1.9477,-1.6166,-2.8868,-2.512,0
-0.32087333333333334,-0.9602033333333336,-0.24781333333333336,0.08986605332510093,0.23235908519200266,0.10549282614384776,-0.1527,-0.4988,-0.0601,-0.4832,-1.3277,-0.4311,-0.01810333333333333,-0.003719999999999988,0.01794999999999999,1.2703351055266217,1.079993582484126,1.1177822898104055,2.1428,2.0383,1.5561,-1.8587,-2.6051,-2.3592,0
-0.2970033333333333,-0.99356,-0.23416999999999993,0.09499753348280204,0.20768189136272808,0.09303037379413168,-0.1175,-0.6213,-0.0637,-0.491,-1.3955,-0.3822,-0.05696999999999999,0.05385666666666668,0.08752666666666668,1.0780553866361284,0.9084543048054426,0.9144595324593359,1.9499,1.5073,1.5785,-1.8183,-1.6847,-1.6014,0
-0.3305466666666667,-0.9767066666666668,-0.23354,0.08296768682728996,0.2384539570004981,0.09656037810970738,-0.1636,-0.5565,-0.0799,-0.5014,-1.3245,-0.3915,0.00639333333333328,-0.07354999999999998,-0.002480000000000001,1.2266739425508855,1.0425833861466263,1.0652286998736387,2.2903,1.8471,1.2901,-1.6242,-2.654,-2.4734,0
-0.29482333333333327,-0.95997,-0.26916666666666667,0.08409262825264045,0.17522770437151297,0.0927042696384336,-0.077,-0.6652,-0.1062,-0.4216,-1.2613,-0.4027,0.05524000000000002,-0.004179999999999969,-0.06757,1.0685414795492225,1.0668729315152767,0.987028731073983,2.0391,1.7362,1.4006,-1.388,-3.1721,-1.7221,0
-0.33071333333333347,-0.9829466666666667,-0.2543866666666667,0.1111706818623828,0.18748771129078692,0.09186851448686316,-0.0586,-0.6398,-0.1064,-0.575,-1.2604,-0.4848,-0.04142333333333334,0.07810333333333336,0.06964666666666663,1.0230873292294675,1.0331165463123546,0.9691785326202568,1.8485,1.4954,1.5842,-1.6748,-2.7613,-1.6155,0
-0.41481000000000007,-0.9627466666666665,-0.22673666666666667,0.16980460850331922,0.18853152436173884,0.12475764777423835,-0.128,-0.6332,-0.0488,-0.9599,-1.2952,-0.535,-0.17818999999999993,-0.007866666666666643,-0.029170000000000036,1.069574863769197,1.142528467413646,1.340793657438603,2.1714,2.2999,2.0044,-1.8347,-3.0957,-2.9723,0
-0.3173966666666666,-0.9732266666666667,-0.24317666666666665,0.07649358541208147,0.18500192903623044,0.07668250568520123,-0.1341,-0.6043,-0.1151,-0.4672,-1.2756,-0.3937,0.06560999999999999,0.027129999999999998,-0.04861333333333335,1.0019065505841591,0.6682817494554018,0.9903889162007687,2.0709,0.8613,1.4893,-1.469,-1.5884,-2.3708,0
-0.3443366666666667,-0.9316933333333333,-0.25079333333333337,0.1032543845051639,0.18916385696429747,0.08190971031372386,-0.1079,-0.5626,-0.108,-0.5472,-1.2408,-0.4524,-0.025646666666666647,-0.08794666666666665,-0.06465333333333334,1.1056333902380098,1.0745755741890275,1.1317706672574475,2.0807,1.419,1.6134,-1.6051,-4.3503,-2.2231,0
-0.35386000000000006,-0.9648166666666668,-0.2209466666666667,0.07790978691122011,0.1661590743489676,0.08804068704134836,-0.1895,-0.5708,-0.0548,-0.5191,-1.2056,-0.3806,-0.040963333333333345,0.10533666666666669,0.0013933333333333204,1.0520077440003859,0.7434157784468111,1.0251989397970132,1.7281,1.9672,1.8049,-1.627,-1.7456,-1.8607,0
-0.3591533333333334,-0.9451033333333335,-0.2530233333333333,0.07824535122616388,0.1959955268372977,0.09327569696163177,-0.2353,-0.5661,-0.112,-0.5104,-1.3224,-0.3921,-0.004780000000000014,-0.03026666666666667,-0.009083333333333322,1.1118830136925066,0.9756177040049119,1.1630514635879285,2.0852,1.5492,1.777,-1.6914,-3.0471,-2.1668,0
-0.35042333333333336,-0.9367133333333335,-0.24023333333333333,0.06967854606411643,0.17809432551771323,0.0835397544568611,-0.2331,-0.6444,-0.1035,-0.4855,-1.2616,-0.4165,-0.007746666666666657,0.03062666666666666,-0.027819999999999994,1.007030261070959,0.8332822330723385,1.082461865028685,2.0067,1.5793,1.7249,-1.7338,-2.3421,-2.0617,0
-0.3526066666666666,-0.9546633333333332,-0.2367266666666666,0.08152974888973342,0.19290229165677836,0.08493136755876654,-0.2066,-0.5827,-0.0916,-0.5365,-1.2856,-0.3879,-0.11539333333333333,-0.009133333333333332,0.10308666666666667,1.0277887472236404,0.8139394831919942,1.0680450044545078,1.8792,1.0486,1.6679,-1.4754,-2.475,-2.1004,0
-0.3419666666666667,-0.9518099999999998,-0.24051666666666666,0.07547195566535972,0.16697909088596521,0.09120758091349619,-0.1764,-0.5764,-0.0656,-0.5098,-1.1822,-0.4313,0.017613333333333325,0.022846666666666682,-0.05475333333333335,0.9619177001620551,0.7345195782622643,1.0394577322130378,1.4725,1.3476,1.7282,-1.7906,-1.6087,-2.0649,0
-0.34897666666666666,-0.9741299999999999,-0.22391000000000005,0.06699634412739834,0.18850505737293205,0.08831641917872193,-0.236,-0.7146,-0.0777,-0.4555,-1.3095,-0.355,0.010673333333333342,0.08277,-0.014706666666666661,0.95974706112253,0.6769969424624075,1.0543847576645833,1.4269,1.4312,1.6132,-1.4393,-1.7665,-1.5913,0
-0.3273233333333333,-0.9666,-0.22348333333333334,0.10673203857076499,0.2018207518122677,0.09796930231150112,-0.0752,-0.5654,-0.0305,-0.5369,-1.3163,-0.399,0.03417666666666668,0.02405999999999999,-0.04332,1.2410666376516428,0.886064738274689,1.002445638873526,1.8159,1.5357,1.7022,-2.2494,-2.2566,-1.9383,0
-0.36968666666666666,-0.9396966666666668,-0.24530999999999994,0.10041132555070956,0.21721557460406635,0.08537754428985128,-0.1542,-0.5901,-0.1025,-0.5267,-1.3532,-0.4178,0.04421333333333332,0.10815,0.010433333333333373,1.1447116633588936,0.8699317978617834,1.237171426343544,2.4354,1.6616,2.2211,-1.6143,-2.2904,-2.2533,0
-0.2997066666666667,-0.9376166666666665,-0.24066666666666672,0.07282230111874992,0.1735047273197444,0.11142365666395901,-0.182,-0.5779,-0.0632,-0.449,-1.2109,-0.4289,-0.021946666666666684,-0.15775,0.055673333333333304,1.3241838188193469,0.948678250660287,1.2940101688918069,2.3191,1.2117,2.0744,-2.4132,-2.1371,-2.3996,0
-0.3271566666666666,-0.97524,-0.2358500000000001,0.09160211066433414,0.18712812059453113,0.097771569628324,-0.1358,-0.5576,-0.0611,-0.5055,-1.2668,-0.3836,-0.051039999999999974,0.05743666666666667,0.009570000000000004,1.2861199554178988,0.8814928100253777,1.0426098933726942,1.9372,1.8745,1.7219,-2.1214,-2.3842,-1.9241,0
-0.31873333333333337,-0.9481233333333335,-0.2330633333333333,0.09146071451093402,0.17549732424197229,0.09951965144125308,-0.0845,-0.6223,-0.0462,-0.5175,-1.229,-0.4152,-0.11832999999999999,-0.0031733333333333223,0.13663,1.1272285406527236,0.8312559172445169,1.0838657800064386,1.9908,1.2895,1.7501,-1.6426,-2.0735,-1.6872,0
-0.1862966666666667,-0.9944933333333332,-0.1893,0.15086224930169845,0.178932281417673,0.14343149752672396,0.2781,-0.5944,0.0255,-0.4469,-1.3269,-0.478,-0.05663999999999996,-0.2213966666666667,0.03777333333333333,1.2290868799010213,0.8402658957173895,1.1218519516109662,2.2591,0.7481,1.4861,-2.0624,-3.0537,-2.3892,0
-0.3501833333333334,-1.0015066666666665,-0.2201299999999999,0.11280531927826483,0.21376375928021382,0.1049857893503556,-0.0455,-0.5705,-0.0525,-0.6178,-1.2984,-0.4584,0.053133333333333345,0.15436000000000002,-0.031206666666666678,1.1542015100263585,0.8541252313089812,1.3231235459642676,1.9042,1.9788,2.1656,-1.7007,-1.651,-2.5268,0
-0.3123666666666666,-0.991336666666667,-0.24418333333333334,0.11457662195601062,0.2389441176673242,0.12144680993619454,-0.0673,-0.5604,-0.0404,-0.4995,-1.3926,-0.4731,-0.01588333333333333,-0.055020000000000006,0.011879999999999995,1.286952225912683,1.2195568546218636,1.4302098542425212,2.469,1.9717,2.6046,-1.8944,-2.9774,-2.8829,0
-0.3454100000000001,-0.9725333333333332,-0.23757999999999999,0.12017830531741375,0.2025079501774127,0.11766467960941468,-0.1628,-0.6328,-0.0593,-0.6872,-1.3521,-0.452,-0.09478333333333329,-0.011019999999999986,0.11324666666666665,1.157717398690149,1.263453693159595,1.2786450279113037,2.4521,2.3484,2.3415,-1.7747,-2.8151,-2.7178,0
-0.3197900000000001,-0.98375,-0.24958666666666665,0.13432728520938753,0.23433312384516722,0.11324853879953545,0.0157,-0.5531,-0.0674,-0.5818,-1.4338,-0.461,-0.06009666666666666,0.08680333333333337,0.07553666666666663,1.3774084568075866,1.330807311496797,1.7257299114374434,2.246,2.2261,2.4912,-1.9323,-2.4463,-3.1297,0
-0.36922333333333335,-0.9869366666666665,-0.26050666666666666,0.13334818226224038,0.2730787211035313,0.10900316013556775,-0.1627,-0.4876,-0.0583,-0.6446,-1.4047,-0.4898,-0.046256666666666675,0.10568333333333335,-0.028226666666666657,1.3815290488748537,1.2693813098169688,1.3894586360641807,2.4798,3.0339,2.1383,-2.0922,-2.1394,-2.3551,0
-0.3248966666666666,-0.980916666666667,-0.26512333333333327,0.09692341264906137,0.15183130403529263,0.10633504526060404,-0.1219,-0.6913,-0.1043,-0.4912,-1.2055,-0.4483,-0.0012433333333333888,0.0347366666666667,-0.02479333333333338,1.3690200813829887,1.3370826223364147,1.1266967492549225,2.5258,2.2564,1.6622,-2.3776,-3.3159,-2.1092,0
-0.29553,-0.9482400000000001,-0.24072999999999994,0.0794882908314825,0.16405841180128075,0.12369000224420897,-0.0892,-0.5702,-0.084,-0.4392,-1.1804,-0.4908,-0.03436666666666663,-0.14693666666666658,0.07410333333333328,1.240906754209871,1.5452764237671441,1.1537609163329599,2.2296,1.789,1.9274,-1.9354,-3.3685,-1.7805,0
-0.31986333333333333,-0.9407833333333335,-0.24451,0.10696281494804256,0.20196925693561987,0.10193629636808166,-0.0491,-0.5336,-0.0718,-0.5368,-1.3268,-0.3994,0.012023333333333336,0.026653333333333314,-0.014876666666666693,1.3201121038298835,1.1366691210948658,1.262934775033337,1.9818,1.9945,1.6008,-1.9455,-2.5605,-2.6341,0
-0.3015733333333334,-0.9514333333333335,-0.23383666666666664,0.06673812916959443,0.1628663262614008,0.10779239139975585,-0.1213,-0.619,-0.0853,-0.4303,-1.1892,-0.4308,-0.13547333333333336,0.008990000000000001,0.19965000000000005,1.231935477467744,1.0592885079146286,1.1226462376902173,2.0878,1.8569,1.9316,-1.6827,-3.3849,-2.0932,0
-0.3592833333333333,-0.9883200000000002,-0.23617666666666667,0.10932488148927341,0.23355431532492937,0.11307878450773658,-0.2009,-0.6553,-0.0704,-0.5703,-1.3931,-0.4538,-0.0695666666666667,0.10007000000000002,0.019853333333333317,1.2909247450844161,1.0247190491830531,1.27875331899885,2.6383,2.2295,2.0823,-1.8098,-2.3476,-2.2108,0
-0.33059999999999995,-0.9295999999999999,-0.2653,0.20272765832090076,0.3048524402802569,0.13788108819834075,0.5868,-0.0045,-0.0763,-0.535,-1.3069,-0.7966,0.10996999999999998,0.03243999999999999,-0.18994999999999998,1.0591932135128719,0.6641720241437248,1.0049428440600918,1.7104,1.4537,1.5791,-1.5766,-1.4634,-1.9988,0
-0.36913333333333326,-0.9798299999999999,-0.23165666666666665,0.10578814004751498,0.2842038803758486,0.11294861414281102,-0.1658,-0.5374,-0.0359,-0.608,-1.5518,-0.4162,-0.11202666666666668,0.09792333333333333,0.042853333333333334,0.9569422473595829,0.5880288883845016,0.9516511979579034,1.7288,1.4077,1.5977,-1.8798,-0.9534,-2.0348,0
-0.37099,-0.9361066666666669,-0.2337466666666667,0.10012645229047049,0.23259155102710719,0.1140838068636638,-0.2031,-0.5177,-0.0291,-0.5631,-1.3187,-0.4129,-0.07961666666666668,-0.038800000000000015,0.07450999999999999,1.189695772204936,0.5744423310691318,1.3238873127245774,1.8244,1.0267,1.9236,-1.9175,-1.0175,-2.7718,0
-0.3864333333333334,-0.9609966666666665,-0.2648966666666666,0.08865918601232371,0.24527896220191936,0.12744565436330874,-0.2163,-0.546,-0.0495,-0.5516,-1.4067,-0.4566,0.016683333333333317,-0.04450333333333334,-0.058409999999999955,1.1213576749770278,0.7625599899446389,1.3984445066474442,1.7223,1.2101,2.0554,-1.8137,-1.6443,-2.4633,0
-0.39175,-0.9410266666666665,-0.26870666666666665,0.09839180211856033,0.25500800248881084,0.1486446165287815,-0.1665,-0.5322,-0.0182,-0.6025,-1.3724,-0.5403,0.009346666666666639,0.014616666666666677,0.003966666666666666,1.2234687349226925,1.1121824531177376,1.2755990320530637,2.6688,2.1173,1.9779,-2.4727,-2.334,-2.4717,0
-0.37516,-1.0222966666666666,-0.22079,0.1523814759309561,0.25985383090649566,0.10251155477344476,-0.0265,-0.5978,-0.0744,-0.6028,-1.4675,-0.3932,-0.11430666666666668,0.03974333333333333,0.053520000000000026,1.0541641228409633,1.0481089225718443,1.5708266034820317,1.8015,1.6494,2.1419,-1.4954,-2.3538,-3.3211,0
-0.40199999999999997,-0.9652933333333332,-0.21259333333333333,0.10947125272149667,0.2747388364062952,0.10958133472238887,-0.2156,-0.5229,-0.022,-0.6764,-1.4659,-0.4033,-0.11197333333333334,-0.013453333333333328,0.055299999999999995,0.8403368540233643,0.9775326729642563,1.5471803822348622,1.3996,1.8855,2.5719,-1.6256,-1.8863,-2.3597,0
-0.3754133333333334,-0.9925299999999999,-0.22818333333333332,0.10784665593054937,0.26916243800813433,0.10408178840777536,-0.1947,-0.4941,-0.0402,-0.5246,-1.4863,-0.4269,-0.030966666666666653,0.08048666666666669,0.02018000000000002,1.063283414170735,0.9529898786354497,1.6156567058971236,1.807,2.1055,2.5799,-1.4191,-2.5439,-3.6414,0
-0.4282133333333332,-1.0110433333333335,-0.23823000000000005,0.1563954222218605,0.32478743572111723,0.0964248435221746,-0.2045,-0.4349,-0.0417,-0.7251,-1.5453,-0.4643,-0.10827333333333336,0.08947666666666666,-0.011853333333333287,0.9381281825265537,1.0909774970602988,1.9022073786893559,1.8209,3.3339,2.9167,-1.79,-1.5485,-2.8612,0
-0.39160000000000006,-0.96899,-0.24043333333333333,0.1197266369117871,0.25090460386644825,0.11744772669467524,-0.1802,-0.5824,-0.0292,-0.6041,-1.4342,-0.422,0.0019733333333333465,0.12929666666666667,0.009366666666666657,0.8823114568283553,1.1026861142411422,1.6178444706659438,1.5302,2.3597,2.1871,-1.4428,-1.8909,-2.7236,0
-0.4235933333333333,-0.9930566666666666,-0.21311000000000002,0.15381998196130017,0.3264203907628123,0.11095336190148263,-0.2259,-0.4262,-0.0273,-0.6352,-1.6167,-0.4059,0.03562000000000002,0.2470133333333333,-0.16707333333333327,1.16831456746534,1.1442483281035705,1.8349624889397855,2.1282,2.4879,2.576,-2.2955,-1.7664,-3.4166,0
-0.36145,-0.9752966666666666,-0.24843666666666672,0.1270894356552598,0.24158482979795265,0.09130243220438755,-0.1615,-0.5011,-0.0988,-0.673,-1.3082,-0.4256,-0.030060000000000017,-0.20189,0.01748333333333336,0.913452695715736,1.5331777368117412,1.7596082708813412,1.7986,2.5421,2.3625,-1.6088,-3.3551,-3.5273,0
-0.4251733333333333,-0.9880666666666669,-0.22585,0.15358325145157198,0.2988234761277257,0.08439167612981745,-0.1398,-0.5972,-0.0704,-0.6529,-1.4537,-0.3595,-0.047389999999999995,0.14836,-0.010889999999999978,0.8958625577120325,0.999479539249959,1.574463447380704,1.6783,2.0947,2.2163,-1.3057,-2.7093,-2.6424,0
-0.38896000000000003,-0.9355499999999998,-0.24795999999999999,0.13145900527908128,0.2496727247473352,0.10244300551677672,-0.1437,-0.5361,-0.0814,-0.6599,-1.4879,-0.4113,-0.16459,-0.02223333333333332,0.14859999999999998,0.9857964990213541,1.000247607391267,1.4646760802307108,1.4536,2.053,2.2885,-1.5429,-2.9407,-2.7314,0
-0.35057,-0.9488466666666666,-0.22271000000000002,0.0946273276486821,0.19294780915437018,0.11322355168061289,-0.2149,-0.4714,-0.0199,-0.5607,-1.2889,-0.4554,0.04158333333333332,-0.053316666666666665,-0.009300000000000001,1.0991993578661394,1.415101140794594,1.4958533120043833,2.258,1.8661,2.4356,-1.8275,-4.3767,-3.2122,0
-0.36261,-0.9477300000000002,-0.24115999999999999,0.08334352404356322,0.20243997177537293,0.12507149017730787,-0.2438,-0.5732,-0.0378,-0.5319,-1.3051,-0.4748,-0.02419333333333334,-0.028380000000000013,0.09252666666666666,1.1422805914525533,1.0772745183387886,1.5902355169170284,1.9143,1.327,2.1823,-1.6335,-2.5794,-3.1882,0
-0.39096000000000003,-0.9522166666666669,-0.28443333333333337,0.10155768736077524,0.31130999417182925,0.14587565165964622,-0.2144,-0.4387,-0.0398,-0.5921,-1.5612,-0.5171,-0.03972333333333334,-0.01925666666666667,-0.09744999999999995,1.2784937545687363,0.8286858577386801,1.760112566100483,2.2323,1.3517,2.9916,-2.133,-2.4177,-3.6026,0
-0.3696566666666666,-0.9667166666666669,-0.23651333333333335,0.08652476896055927,0.20894950236894533,0.1355732649194506,-0.2106,-0.4107,0.0347,-0.5883,-1.3459,-0.4142,0.07415333333333338,0.38197666666666674,0.11033666666666668,1.4343847682070412,0.8856691098798706,1.398618324974338,2.599,2.1362,2.3435,-2.3263,-1.6093,-2.9833,0
-0.36920000000000003,-1.0163700000000002,-0.23416333333333333,0.12461905538687588,0.22171506434751045,0.17998203834393248,-0.1284,-0.5245,0.0342,-0.629,-1.4662,-0.538,0.032883333333333334,0.48151666666666676,0.2939299999999999,1.8100179953541198,1.1835049236042081,1.1200059058187888,3.8745,3.6747,2.2136,-2.8305,-1.9145,-1.5678,0
-0.4024966666666666,-0.9703233333333332,-0.2552,0.12913460628441115,0.2743314779269947,0.13908288275651348,-0.2157,-0.5356,-0.0655,-0.6509,-1.5856,-0.4954,0.025939999999999984,0.005443333333333337,-0.12217666666666666,1.0824871612203522,1.0171686520327694,1.7001333681322717,2.0811,1.8599,2.8353,-1.792,-1.9479,-3.0153,0
-0.4053833333333333,-0.9671399999999999,-0.2271566666666666,0.14847678114853477,0.229037916752543,0.12677717537239225,-0.1778,-0.6147,-0.0332,-0.7974,-1.3266,-0.4765,0.0072766666666666795,0.06306999999999999,-0.056473333333333334,1.122071368337896,0.9388285000559163,1.6552269036940654,1.6798,2.0624,2.4602,-1.6309,-2.1175,-2.8101,0
-0.3655933333333334,-1.001043333333333,-0.22938333333333333,0.13993399659231792,0.2618622587167343,0.1276376500592348,-0.0321,-0.5716,-0.0562,-0.6058,-1.4976,-0.4304,-0.11940666666666669,0.07383666666666659,0.14474999999999996,1.2372779900982678,1.7131490311972142,1.6823752418263722,2.3188,3.0762,2.3266,-2.3947,-4.325,-3.4735,0
-0.3752400000000001,-0.9767099999999999,-0.24380999999999994,0.12949535632734027,0.2780007285403503,0.11816597722023796,-0.1722,-0.551,-0.0684,-0.609,-1.5166,-0.4412,-0.07117,-0.02962666666666666,0.036446666666666655,1.1099294985842958,1.3748835020073353,1.6570972959038808,1.9108,2.4249,2.4124,-1.7299,-3.2412,-3.4296,0
-0.3622866666666667,-0.9569199999999998,-0.2828299999999999,0.18138975322413517,0.2608035942210549,0.10421516584981019,0.2394,-0.4959,-0.1072,-0.6378,-1.4686,-0.5336,-0.003103333333333341,-0.08040999999999997,-0.22057666666666667,1.1161048005678387,1.2536456644385277,1.5031117660243762,1.4495,2.0705,2.7031,-1.7074,-3.9912,-2.943,0
-0.42909666666666657,-0.9847866666666665,-0.24228666666666665,0.1304513292337436,0.3122844345976181,0.08985484744406058,-0.2098,-0.5595,-0.0803,-0.6762,-1.4877,-0.3741,-0.025126666666666683,0.19465999999999997,-0.024510000000000025,1.0081312814528067,0.9610856959171495,1.8441429418286837,1.5874,2.1431,2.557,-1.439,-1.6462,-3.3233,0
-0.42411000000000004,-0.9621533333333333,-0.2321733333333334,0.1364758671353468,0.2791062382496763,0.09747159421165183,-0.1945,-0.523,-0.0835,-0.6318,-1.5069,-0.4036,-0.07320666666666667,0.015803333333333332,-0.0026733333333333054,0.8920384895566864,0.922026996943123,1.649688386234855,1.4167,1.6455,2.1272,-1.364,-1.9148,-3.3203,0
-0.40963000000000005,-0.9561200000000002,-0.22801333333333335,0.11501560958529003,0.23131905626883284,0.10801566212530392,-0.2287,-0.6169,-0.0702,-0.575,-1.3815,-0.4568,-0.0017233333333333434,0.1656666666666667,-0.03274999999999998,0.9687573653320307,0.7146789273480801,1.427401367991788,1.6287,1.4433,2.0802,-1.652,-1.0394,-2.5874,0
-0.40639666666666674,-0.9813333333333334,-0.19867666666666667,0.12392079918748253,0.2522478260503476,0.1073225903633473,-0.1847,-0.5494,-0.0318,-0.6631,-1.4704,-0.3828,-0.07882333333333333,0.054529999999999995,0.11067666666666666,0.8849099949101907,1.060903277514675,1.7365080399713262,1.7563,2.5198,2.8179,-1.3891,-2.3266,-2.8144,0
-0.38041333333333327,-0.91928,-0.20075999999999994,0.10171603384044171,0.18956539477592352,0.11278625069053226,-0.1725,-0.5764,-0.035,-0.5557,-1.2226,-0.4006,-0.05120999999999999,-0.00671666666666667,0.06442000000000002,0.8673342701078104,1.045402422789766,1.602458329631974,1.6788,1.7255,2.379,-1.5004,-2.3559,-3.127,0
-0.4111766666666667,-0.9886599999999999,-0.2196566666666667,0.11515129682691178,0.21213459227900414,0.10554780477089053,-0.1831,-0.6154,-0.0,-0.6456,-1.3495,-0.4632,0.029033333333333324,0.08984666666666667,-0.09206666666666671,0.846270988771789,0.729654283150274,1.6265612858978322,1.3818,1.2628,3.3308,-1.8674,-1.571,-2.6905,0
-0.40148999999999996,-1.0010933333333334,-0.22345666666666666,0.08685127339109758,0.23216143154893443,0.09839542911774087,-0.2554,-0.5617,-0.0234,-0.624,-1.2737,-0.3596,-0.03001333333333333,0.06644333333333335,-0.017079999999999998,0.8635253855795033,0.8057292163788259,1.3205133741505024,1.6797,1.4805,2.1232,-1.3277,-1.6782,-2.7084,0
-0.34718,-0.9506133333333334,-0.22313,0.07299431909874668,0.19821615114493735,0.09895422888281787,-0.2284,-0.6176,-0.0349,-0.4797,-1.3136,-0.4008,-0.07682666666666664,-0.010749999999999992,0.04820000000000001,0.9211430885639839,0.8172367848954224,1.1631278875337054,1.5031,1.9973,1.757,-1.519,-2.0894,-2.509,0
-0.3749700000000001,-0.9789,-0.2024133333333333,0.10010948196504837,0.1761182146095099,0.15684021241341475,-0.1663,-0.5859,0.0466,-0.5728,-1.2577,-0.4598,0.06067000000000001,0.47930000000000006,0.3540266666666667,1.3910235956128583,0.9897003228076249,1.1520798086379538,2.377,3.0397,2.4024,-1.86,-1.8904,-2.461,0
-0.39487333333333324,-0.9414033333333333,-0.22258666666666665,0.12324958678907674,0.24008445709839252,0.12009177161319338,-0.2144,-0.5028,-0.0443,-0.6132,-1.3965,-0.427,-0.01813,-0.008663333333333316,0.03271333333333338,1.0341122633480837,0.9933979434881253,1.716013835394216,2.1936,1.421,2.2464,-1.8442,-2.6302,-3.2091,0
-0.39977666666666667,-1.0198966666666667,-0.21403666666666663,0.12938499268977577,0.26545955790865294,0.09311384386620622,-0.1258,-0.5793,-0.043,-0.6131,-1.5561,-0.3685,-0.1091,0.16855666666666666,0.09228666666666668,0.8971757318346855,0.8863670072299326,1.5373744467341923,1.2181,1.5218,2.6655,-1.5971,-2.0516,-2.9165,0
-0.3101533333333333,-0.9353733333333335,-0.22104000000000001,0.09351741026669048,0.1727985550971945,0.10374966755243785,0.0333,-0.5275,-0.0713,-0.4382,-1.1945,-0.4139,-0.01145666666666667,-0.12658333333333327,0.044830000000000016,0.9806814568358113,1.2144125289218237,1.2134881969930236,1.805,1.3665,1.7039,-1.34,-3.1989,-2.6067,0
-0.32728,-0.9557833333333332,-0.2489033333333333,0.09892263574161864,0.18042736256155698,0.08905446409199622,0.0094,-0.544,-0.0765,-0.5045,-1.2582,-0.3921,-0.011226666666666643,-0.04615666666666669,-0.0057133333333333255,0.8263206286504854,1.1064512397699708,1.2104859627533844,1.9894,1.6249,2.0853,-1.2508,-3.8121,-2.5833,0
-0.34266,-0.97203,-0.20562333333333332,0.07200789037225067,0.19910813757422338,0.09100905481033887,-0.2164,-0.6389,-0.0532,-0.5025,-1.294,-0.3833,-0.06579333333333333,0.04715333333333333,0.13696999999999998,0.7685355329919783,0.9227942280932944,1.1371262184362703,1.4707,1.8895,2.0232,-1.3204,-2.6426,-2.3873,0
-0.3086,-0.9838433333333333,-0.1982066666666667,0.06068454896230687,0.23114488020217575,0.08172109394398915,-0.1738,-0.6108,-0.0634,-0.4373,-1.4215,-0.344,0.01183333333333334,-0.0019166666666666618,-0.007316666666666682,0.9048525627028334,1.0195998515588605,1.1650207812511872,1.932,1.2665,2.08,-2.1891,-2.8394,-2.6507,0
-0.3213499999999999,-0.9719100000000002,-0.19837666666666673,0.06940755076681697,0.24680160446301241,0.10063022677222726,-0.1498,-0.5351,-0.0233,-0.4854,-1.4029,-0.3639,0.05397333333333334,0.11365333333333334,0.11441999999999997,1.1296062520992034,1.3710272573897817,1.4724506123443,2.5384,3.2821,2.3859,-1.5993,-3.5864,-3.0689,0
-0.30205999999999994,-0.9572399999999999,-0.19934333333333323,0.09451884541154232,0.23278530970358313,0.09528013029947566,-0.0949,-0.5788,-0.0342,-0.4721,-1.3764,-0.3771,0.029743333333333323,-0.06985999999999999,-0.0014133333333333441,1.0902170304919625,1.295939397955172,1.2742865602944757,2.6348,1.443,1.879,-1.8968,-3.3831,-2.9098,0
-0.3222366666666667,-0.9730233333333337,-0.2116366666666667,0.07760429459913855,0.21095389050581703,0.09120760889059765,-0.1471,-0.6178,-0.0648,-0.4482,-1.2764,-0.3878,-0.07527666666666666,-0.09934,0.09135999999999997,0.9431807691158068,1.4260242614369845,1.2319361805010787,2.0807,2.4858,1.9945,-1.4821,-3.6628,-3.0323,0
-0.33453666666666665,-1.01971,-0.21001666666666666,0.0956842093531646,0.20592354850183164,0.10806718562632879,-0.1167,-0.6362,0.0084,-0.6027,-1.4253,-0.4127,-0.0028233333333333183,0.20704,0.13321666666666668,1.0121903411306397,0.9045685211078871,1.0521845583760758,1.9772,1.8375,1.8516,-1.9617,-2.8084,-2.7076,0
-0.36351333333333324,-1.0258033333333334,-0.19991666666666666,0.11050533372470848,0.2481176034885867,0.10194702168226916,-0.1348,-0.5304,-0.0203,-0.5475,-1.3734,-0.3678,-0.036613333333333324,-0.028249999999999997,0.024049999999999974,1.0463356835044444,0.8395241968335194,1.5556996476250453,1.6613,1.5533,2.0578,-1.9224,-2.7723,-3.2362,0
-0.34217666666666663,-0.9844100000000001,-0.23792333333333332,0.125976940099296,0.249714226114849,0.1114392665375934,-0.0564,-0.5525,-0.0658,-0.6741,-1.4531,-0.4146,-0.029246666666666664,0.042640000000000025,-0.02750999999999996,1.096898157260873,1.262860581651694,1.381047390470051,2.3411,2.9295,2.0961,-1.8327,-4.0931,-2.6484,0
-0.33640333333333333,-0.9712466666666669,-0.23234333333333332,0.18394639489645426,0.29112178365684044,0.10751826367175256,0.0708,-0.5356,-0.0586,-0.6173,-1.4724,-0.4091,-0.046089999999999985,0.15416000000000002,-0.02660333333333335,0.9902521912676311,1.1061134831721255,1.1472312836844922,1.8762,2.7659,1.6142,-1.3854,-1.8664,-2.6106,0
-0.3482933333333334,-0.9785066666666666,-0.28468333333333334,0.16306359650684493,0.30207556251915574,0.13827703597546817,0.0936,-0.4429,-0.0695,-0.7644,-1.582,-0.4897,-0.06908000000000002,-0.11913333333333334,-0.06499333333333332,1.3122554822216177,1.8275787887791326,1.3631415224762433,2.458,2.6026,1.8229,-2.2298,-3.8978,-2.9533,0
-0.37688666666666665,-0.9655633333333334,-0.26459666666666665,0.15971412766162124,0.3282745155730378,0.10837509410832595,-0.0778,-0.4249,-0.0531,-0.6954,-1.648,-0.4185,-0.10701333333333332,0.10379666666666666,-0.00672666666666667,1.0360869231053373,1.339506025905364,1.0460038916434935,1.7742,3.167,2.177,-1.964,-2.2296,-1.6624,0
-0.35595333333333345,-0.9705966666666667,-0.26176000000000005,0.14995378077199684,0.29029720974977646,0.10813045314134093,-0.0343,-0.4904,-0.0454,-0.636,-1.5626,-0.4213,-0.07261666666666665,-0.10667333333333334,0.00975333333333334,1.1031034053143394,1.0760373705000414,1.3746479227570345,1.6144,1.9002,1.9728,-1.9164,-1.8893,-2.9267,0
-0.35785333333333325,-0.9684633333333335,-0.23348333333333332,0.13043665587327166,0.2920519846065828,0.09888189082604222,-0.0452,-0.4602,-0.0811,-0.5966,-1.4802,-0.4329,-0.10451999999999999,-0.022673333333333327,0.026319999999999996,1.0726061164125054,1.3989300852445412,1.4108689453544285,1.6731,2.483,1.6275,-1.5195,-3.7463,-3.0277,0
-0.3763933333333333,-0.9568666666666664,-0.23777666666666666,0.13722210270675916,0.3446330225470059,0.12270113869390784,-0.149,-0.3638,-0.0411,-0.698,-1.5338,-0.4227,-0.02467333333333332,0.13535333333333333,-0.004493333333333299,1.2840942147552163,1.46539134839606,1.433071653509326,2.3803,4.1484,2.5816,-2.4123,-3.2245,-3.835,0
-0.3536566666666667,-0.9643800000000001,-0.2853266666666667,0.10499483298726177,0.2508934605599041,0.0959962784240325,-0.1866,-0.4475,-0.1276,-0.554,-1.3559,-0.4605,-0.10307666666666668,-0.010966666666666644,0.01871666666666668,1.2342704224130456,0.7972377343411885,1.097554103633301,2.1954,1.3691,1.5541,-2.2629,-2.1087,-2.5498,0
-0.37269,-0.9694966666666665,-0.2591533333333334,0.10331734290441072,0.2768067450884042,0.10560784888977919,-0.1927,-0.4628,-0.0489,-0.607,-1.4444,-0.4261,-0.058069999999999976,-0.023413333333333338,-0.01311000000000003,1.1705415022028525,1.0507919055558093,1.512286244878355,2.6331,1.719,2.0455,-1.8845,-2.3164,-3.2672,0
-0.35089666666666675,-0.9843499999999998,-0.24905333333333335,0.09390918387512455,0.19958942641816232,0.11291438542887974,-0.1934,-0.5906,-0.0892,-0.5208,-1.3143,-0.4371,-0.04318333333333334,0.028983333333333323,0.05003333333333331,1.0642375584178216,0.8759961014254823,1.14254167488568,1.8239,2.1711,1.6558,-1.8421,-2.5706,-2.3472,0
-0.28078666666666663,-0.9516833333333335,-0.29497000000000007,0.09016345208538781,0.20450394833610785,0.11506266703335008,-0.0586,-0.5503,-0.0957,-0.5689,-1.4164,-0.4866,0.03417666666666667,-0.0032066666666666615,-0.01646333333333333,1.0784204316349981,0.9139398916073553,1.2700644261375993,1.7944,1.7013,1.9683,-1.6384,-2.2008,-2.6161,0
-0.23192333333333334,-0.9493799999999999,-0.28942666666666667,0.0662051809793293,0.17813793648123669,0.09922525378403296,-0.1242,-0.58,-0.1238,-0.3885,-1.2307,-0.4979,-0.006533333333333339,-0.043803333333333375,0.013793333333333347,1.2300471326358788,1.0472418155962515,1.1539979662724364,1.9484,1.4445,2.0213,-2.1091,-2.6815,-2.7459,0
-0.22510000000000002,-0.9904033333333334,-0.29163999999999995,0.0924398630238171,0.19425617725647457,0.10874812594500985,-0.0098,-0.6427,-0.0966,-0.432,-1.3203,-0.4498,0.005460000000000006,0.006169999999999991,0.046543333333333346,1.3489230569299502,1.3770793421536054,1.0188779760729136,2.4721,3.6226,1.5948,-2.1088,-3.7616,-2.0176,0
-0.24956666666666666,-0.9600066666666667,-0.29611333333333323,0.10261663955053135,0.17891556269568235,0.10995571438736952,-0.0707,-0.525,-0.1039,-0.4454,-1.2222,-0.4815,-0.08791333333333334,-0.01753666666666668,0.08028666666666667,1.245877283970072,1.3337170944092833,0.9949244849990249,2.4192,1.8364,1.7574,-2.2319,-3.4702,-2.0105,0
-0.22222666666666666,-0.9804700000000002,-0.3116733333333333,0.11556746927238214,0.20211409231012273,0.10668320468058475,0.0491,-0.5025,-0.1084,-0.4188,-1.2802,-0.4968,-0.04166000000000001,0.06119333333333335,0.09561666666666666,1.2972615229915987,1.0114090198684527,1.057076865728066,2.3985,1.5559,2.1082,-2.1404,-2.32,-1.5723,0
-0.36461000000000005,-0.9787800000000001,-0.28521,0.13608247334511572,0.3218626772934115,0.12972038722602153,-0.0801,-0.3546,-0.0656,-0.6187,-1.6324,-0.4583,-0.006376666666666675,0.014506666666666635,-0.08486999999999999,1.214444231249872,1.0601142257691674,1.6020646237665126,2.0266,2.3404,2.3752,-1.9648,-2.5338,-3.3685,0
-0.37273999999999996,-0.9663533333333333,-0.23712999999999992,0.1429686669313872,0.309561142902985,0.12121132059910619,-0.0607,-0.5355,-0.0139,-0.6286,-1.7224,-0.4489,0.0035166666666666827,-0.032349999999999976,-0.05112999999999999,1.2001788341120563,0.9879075702786131,1.510460394794044,1.7131,2.0446,1.9464,-2.0902,-2.0698,-3.1692,0
-0.43227000000000004,-0.9694633333333335,-0.25669,0.15073244656767126,0.2680931676492892,0.14517548560514495,-0.1875,-0.3983,-0.024,-0.8042,-1.4155,-0.4796,-0.09948999999999998,-0.05607333333333333,-0.05422666666666666,1.127165739534036,1.2280925436692838,1.8613871614421351,1.7926,2.2716,2.6703,-1.8836,-3.2295,-3.923,0
-0.4242133333333334,-0.9493199999999999,-0.23374666666666669,0.17188849981257062,0.3540946507011542,0.13747987622854516,-0.1606,-0.3246,-0.0082,-0.722,-1.5771,-0.5501,-0.24254666666666663,0.11348000000000005,0.21777333333333335,1.2090405930646666,1.2143625353132457,1.8733842971429033,1.6691,2.7182,2.8227,-2.4035,-2.0271,-3.7488,0
-0.37127000000000016,-0.9367333333333333,-0.22384666666666667,0.13007125142888365,0.33983542095157376,0.12948886713784963,-0.1853,-0.5168,-0.0057,-0.668,-1.4803,-0.4546,-0.05689666666666668,0.09905666666666667,0.10006333333333334,1.205187496496974,0.8451831063325184,1.594109403177477,1.9092,1.892,2.2661,-1.867,-1.8448,-2.4758,0
-0.4401399999999999,-0.9813366666666667,-0.2649,0.16950960220996128,0.33751697426876215,0.13479263000419672,-0.125,-0.4656,0.032,-0.779,-1.5072,-0.5001,-0.09346,-0.11604666666666662,0.0076666666666666515,1.1850101270045958,1.1740648574381503,1.737482153584027,1.6708,2.5748,2.8982,-2.4953,-2.7272,-2.9839,0
-0.3968233333333335,-1.0118266666666667,-0.24725999999999995,0.1436468890965845,0.31733134204436564,0.14969800081589552,-0.1456,-0.4731,0.0034,-0.639,-1.6366,-0.572,0.052829999999999995,0.10042333333333332,-0.10330999999999997,1.4818458664205216,1.095986982896312,1.8514058897273826,2.8904,2.0966,3.2692,-2.5516,-2.3596,-3.3203,0
-0.3960333333333334,-0.9838866666666666,-0.23430999999999996,0.14350564408781094,0.3001473749887606,0.12308972715476495,-0.1248,-0.5791,-0.033,-0.6119,-1.5741,-0.4374,-0.09936666666666666,-0.09371666666666667,-0.03107333333333331,1.053402623794004,0.9694729699005621,1.393706579205085,1.2155,1.8064,2.0747,-1.9436,-2.3136,-3.0128,0
